acc_x,acc_y,acc_z,gyro_x,gyro_y,gyro_z,temp
-0.04,0.38,0.9,-8.56,4.93,5.02,31.68
-0.02,0.37,0.88,-6.23,5.86,5.15,31.73
-0.02,0.38,0.87,-7.45,8.23,5.8,31.73
-0.01,0.38,0.89,-6.6,6.37,5.69,31.78
-0.01,0.37,0.88,-7.39,4.17,5.83,31.73
0.0,0.38,0.88,-11.01,1.07,5.6,31.64
0.01,0.37,0.87,-15.31,-0.89,5.63,31.78
0.01,0.37,0.88,-13.47,-2.24,5.3,31.73
0.0,0.38,0.89,-9.04,-2.24,4.72,31.64
-0.01,0.38,0.9,-5.79,0.38,4.6,31.68
-0.03,0.38,0.91,-4.79,3.22,4.18,31.73
-0.04,0.38,0.9,-3.3,3.28,4.37,31.64
-0.04,0.38,0.9,-3.18,1.37,3.88,31.68
-0.05,0.36,0.91,-1.16,-0.18,3.1,31.73
-0.04,0.37,0.91,-0.95,-0.43,2.64,31.73
-0.02,0.36,0.91,-0.09,0.15,2.7,31.68
-0.01,0.37,0.91,0.21,1.5,2.17,31.73
-0.0,0.38,0.9,0.03,0.73,0.82,31.73
0.01,0.39,0.91,-1.4,-0.78,-0.02,31.68
0.01,0.39,0.91,-1.5,-2.81,-1.37,31.64
0.0,0.39,0.9,-0.73,-4.21,-2.67,31.64
-0.0,0.39,0.9,0.49,-3.56,-2.58,31.68
-0.0,0.4,0.9,0.55,-3.34,-2.17,31.64
0.0,0.41,0.9,0.17,-2.79,-2.73,31.73
0.01,0.42,0.9,0.43,-2.78,-3.21,31.78
-0.0,0.42,0.89,1.44,-3.69,-3.8,31.82
-0.01,0.42,0.9,2.7,-3.51,-3.68,31.82
-0.01,0.4,0.91,3.25,-2.49,-4.38,31.68
-0.03,0.39,0.91,3.51,-1.07,-4.7,31.64
-0.05,0.38,0.91,3.1,0.32,-4.02,31.73
-0.05,0.38,0.91,2.73,0.24,-2.5,31.68
-0.05,0.38,0.91,2.9,0.84,-1.24,31.73
-0.04,0.38,0.91,3.18,0.95,-0.66,31.73
-0.04,0.39,0.9,3.18,0.64,-0.84,31.78
-0.03,0.4,0.89,3.47,0.44,-0.66,31.64
-0.03,0.41,0.9,3.3,0.78,0.56,31.73
-0.02,0.41,0.9,2.2,1.59,1.8,31.68
-0.01,0.4,0.9,0.2,3.15,3.1,31.73
0.0,0.39,0.9,-1.22,4.34,2.76,31.73
-0.0,0.38,0.9,-1.92,3.56,1.34,31.78
-0.02,0.38,0.9,-2.34,1.82,-0.15,31.73
-0.03,0.39,0.9,-2.55,1.04,-1.1,31.64
-0.04,0.4,0.9,-3.02,3.13,-1.21,31.78
-0.05,0.4,0.9,-2.52,5.37,-0.82,31.73
-0.06,0.39,0.9,-2.47,6.05,-0.49,31.73
-0.06,0.39,0.88,-1.85,4.12,-0.67,31.68
-0.04,0.38,0.88,-2.41,3.69,-0.96,31.73
-0.04,0.38,0.89,-2.85,3.28,-1.54,31.64
-0.03,0.38,0.88,-1.25,3.63,-0.41,31.68
-0.03,0.39,0.88,-1.07,2.95,-0.18,31.73
-0.03,0.39,0.88,-1.53,4.56,1.1,31.73
-0.04,0.39,0.9,-1.44,5.34,1.66,31.78
-0.04,0.39,0.9,-1.5,5.47,3.05,31.73
-0.04,0.38,0.89,-1.18,4.61,4.55,31.73
-0.02,0.38,0.89,-2.15,6.09,7.21,31.78
-0.02,0.37,0.89,-2.85,6.99,6.61,31.73
-0.01,0.37,0.89,-3.79,8.32,9.65,31.64
-0.02,0.38,0.9,-5.3,8.03,9.65,31.68
-0.02,0.38,0.91,-3.25,7.13,8.47,31.64
-0.04,0.38,0.9,-1.69,7.07,8.85,31.73
-0.03,0.38,0.91,-1.82,8.09,9.36,31.68
-0.04,0.38,0.91,-1.45,8.49,9.82,31.64
-0.05,0.37,0.92,-3.94,8.02,10.61,31.73
-0.05,0.37,0.9,-3.13,6.67,10.67,31.78
-0.05,0.39,0.9,-2.76,7.66,11.53,31.73
-0.04,0.39,0.9,-1.54,6.11,9.13,31.73
-0.04,0.4,0.9,-0.15,5.25,7.3,31.68
-0.03,0.39,0.89,0.05,4.52,5.51,31.82
-0.03,0.39,0.9,-0.17,3.02,3.97,31.64
-0.04,0.38,0.91,-0.99,2.47,3.33,31.68
-0.05,0.38,0.89,0.5,2.7,2.2,31.73
-0.06,0.38,0.9,1.71,2.98,1.97,31.64
-0.06,0.38,0.9,3.31,2.26,1.25,31.68
-0.06,0.38,0.89,4.95,2.14,1.19,31.73
-0.05,0.39,0.89,4.96,2.75,0.95,31.73
-0.03,0.39,0.91,4.56,1.77,1.15,31.78
-0.03,0.39,0.9,4.78,0.76,0.85,31.73
-0.03,0.39,0.9,4.98,1.31,0.78,31.73
-0.03,0.4,0.91,5.18,1.05,0.02,31.78
-0.04,0.39,0.9,6.09,0.37,0.29,31.73
-0.05,0.38,0.89,6.29,-0.05,0.55,31.64
-0.06,0.38,0.89,6.23,-0.49,-0.18,31.68
-0.05,0.39,0.91,5.5,-0.81,-1.15,31.73
-0.05,0.39,0.9,5.66,-1.5,-2.15,31.73
-0.05,0.4,0.89,5.71,-2.66,-2.4,31.78
-0.05,0.4,0.88,5.83,-3.8,-2.46,31.64
-0.05,0.41,0.9,4.99,-3.71,-2.15,31.82
-0.04,0.41,0.91,3.25,-3.02,-0.85,31.87
-0.03,0.41,0.89,3.34,-2.12,0.11,31.73
-0.04,0.4,0.88,2.73,-1.65,0.98,31.64
-0.03,0.4,0.9,2.35,-1.73,1.02,31.68
-0.03,0.4,0.9,2.31,-1.37,0.18,31.64
-0.04,0.39,0.89,2.14,-0.99,1.39,31.64
-0.05,0.4,0.89,1.66,-0.52,2.76,31.78
-0.04,0.39,0.9,1.19,0.38,2.38,31.64
-0.05,0.39,0.88,1.42,0.92,2.67,31.73
-0.04,0.4,0.9,1.01,-0.24,3.86,31.78
-0.03,0.39,0.9,0.17,-0.52,7.05,31.68
-0.03,0.39,0.87,2.05,1.62,9.95,31.73
0.02,0.43,1.0,-0.06,4.47,15.15,31.64
-0.02,0.41,0.91,-3.97,1.97,15.89,31.78
-0.03,0.41,0.92,-6.64,3.76,14.85,31.64
-0.05,0.41,0.9,-8.08,6.24,16.02,31.78
-0.05,0.39,0.9,-5.24,7.04,15.04,31.78
-0.03,0.38,0.9,-3.86,6.84,12.18,31.82
-0.05,0.38,0.9,-3.82,3.57,6.89,31.87
-0.05,0.38,0.89,-4.18,2.89,4.58,31.78
-0.05,0.39,0.9,-2.73,4.75,3.47,31.82
-0.03,0.41,0.91,-1.45,6.5,3.31,31.68
-0.01,0.42,0.91,-0.9,5.85,2.46,31.68
-0.01,0.4,0.9,-1.34,2.29,-1.68,31.64
-0.01,0.38,0.9,-0.26,-1.82,-5.44,31.73
-0.02,0.37,0.9,1.59,-3.53,-7.33,31.78
-0.02,0.39,0.89,2.18,-4.6,-8.47,31.73
-0.03,0.39,0.89,2.35,-5.91,-9.13,31.68
-0.03,0.4,0.87,3.5,-5.98,-8.43,31.68
-0.04,0.39,0.86,5.22,-3.89,-8.66,31.73
-0.03,0.38,0.85,7.44,-1.01,-9.05,31.68
-0.06,0.39,0.87,8.41,1.07,-11.01,31.68
-0.07,0.38,0.88,9.8,-0.35,-12.96,31.73
-0.06,0.38,0.91,10.21,-4.05,-13.45,31.78
-0.07,0.4,1.07,0.67,-19.63,-19.59,31.78
-0.06,0.39,0.83,9.34,-16.79,-19.68,31.73
-0.04,0.41,0.88,12.11,-6.11,-13.45,31.73
-0.02,0.42,0.93,10.53,0.21,-8.14,31.68
-0.0,0.41,0.93,10.53,2.27,-5.3,31.82
0.01,0.42,0.91,9.51,1.74,-4.0,31.82
-0.02,0.39,0.91,6.38,1.77,-4.21,31.68
-0.04,0.39,0.88,5.8,1.19,-2.7,31.73
-0.05,0.41,0.88,4.49,0.87,-1.94,31.73
-0.06,0.42,0.9,3.83,1.45,0.44,31.78
-0.04,0.44,0.91,3.71,3.34,4.02,31.82
-0.03,0.44,0.89,2.79,2.98,4.58,31.73
-0.03,0.42,0.9,2.55,0.73,1.59,31.78
-0.02,0.41,0.89,3.33,-1.33,-0.96,31.73
-0.04,0.4,0.88,3.25,-2.47,-2.64,31.73
-0.04,0.41,0.88,2.92,-2.38,-2.24,31.87
-0.03,0.42,0.89,1.74,-0.81,0.0,31.82
-0.05,0.42,0.87,2.63,0.43,0.56,31.73
-0.05,0.41,0.88,3.76,0.02,-2.0,31.78
-0.04,0.42,0.9,3.24,-2.5,-3.19,31.82
-0.03,0.42,0.89,1.74,-4.44,-4.2,31.73
-0.03,0.42,0.89,1.27,-4.26,-4.58,31.78
-0.04,0.41,0.89,1.19,-5.63,-6.06,31.82
-0.04,0.41,0.9,0.31,-7.44,-7.59,31.82
-0.04,0.42,0.9,0.37,-8.79,-7.57,31.78
-0.03,0.42,0.92,-0.61,-9.98,-8.17,31.73
-0.03,0.41,0.9,-0.03,-10.21,-8.52,31.82
-0.01,0.4,0.89,-0.18,-9.8,-6.4,31.68
-0.02,0.41,0.91,-1.63,-10.15,-6.32,31.82
-0.02,0.4,0.89,-0.9,-12.31,-7.63,31.73
-0.04,0.38,0.86,0.26,-11.13,-7.53,31.78
-0.03,0.4,0.88,0.95,-8.23,-4.99,31.73
-0.03,0.4,0.88,-0.27,-6.49,-4.15,31.73
-0.02,0.39,0.83,0.14,-6.58,-4.49,31.78
-0.03,0.4,0.84,3.37,-5.05,-2.85,31.82
-0.06,0.42,0.82,4.06,-0.17,-0.5,31.82
-0.11,0.45,0.86,0.18,4.81,0.55,31.68
-0.04,0.42,0.9,-3.05,8.41,7.89,31.87
-0.02,0.41,0.87,-1.24,8.24,7.53,31.82
-0.03,0.41,0.89,1.39,5.25,3.11,31.82
-0.02,0.41,0.92,1.8,-2.08,1.36,31.68
-0.01,0.42,0.91,0.81,-4.81,1.48,31.73
0.0,0.41,0.89,-0.31,-0.4,2.15,31.78
-0.01,0.4,0.89,0.78,4.75,3.5,31.68
-0.02,0.41,0.89,0.63,3.63,2.14,31.73
-0.02,0.43,0.88,-0.06,-0.02,0.2,31.78
-0.01,0.43,0.9,0.53,-0.06,0.47,31.68
-0.04,0.43,0.9,0.82,0.6,1.56,31.73
-0.04,0.42,0.89,0.14,1.1,5.02,31.78
-0.03,0.41,0.88,0.06,2.5,7.11,31.78
-0.02,0.4,0.88,0.49,4.24,6.84,31.73
-0.02,0.39,0.88,0.76,3.21,5.05,31.82
-0.02,0.39,0.9,1.28,2.44,4.5,31.68
-0.0,0.41,0.9,2.75,2.6,3.56,31.73
-0.01,0.42,0.9,3.57,2.75,2.2,31.73
-0.02,0.44,0.89,2.85,2.5,2.06,31.68
-0.02,0.43,0.88,1.98,2.26,2.82,31.73
-0.02,0.43,0.88,0.61,3.11,3.71,31.73
-0.02,0.41,0.88,0.67,3.59,4.0,31.78
-0.03,0.4,0.88,1.11,4.44,3.73,31.82
-0.03,0.41,0.89,1.57,3.5,3.45,31.64
-0.03,0.42,0.9,1.98,3.1,3.04,31.78
-0.03,0.42,0.89,2.43,3.25,2.55,31.73
-0.04,0.42,0.89,2.61,3.92,1.51,31.73
-0.04,0.42,0.88,2.85,4.05,1.28,31.68
-0.04,0.42,0.89,2.18,3.73,1.4,31.73
-0.03,0.42,0.9,1.45,3.11,1.22,31.82
-0.02,0.42,0.9,1.39,3.27,1.39,31.78
-0.02,0.41,0.9,1.47,3.66,1.56,31.82
-0.02,0.41,0.89,0.6,2.47,0.81,31.82
-0.05,0.41,0.88,2.44,2.5,0.41,31.87
-0.04,0.42,0.88,3.02,2.99,1.27,31.73
-0.03,0.43,0.89,2.37,3.68,2.61,31.73
-0.02,0.41,0.88,2.7,5.39,3.04,31.78
-0.03,0.4,0.88,2.38,4.72,2.87,31.73
-0.03,0.41,0.89,1.5,3.01,2.35,31.82
-0.02,0.42,0.9,1.47,2.49,1.77,31.78
-0.03,0.43,0.91,0.75,2.38,1.48,31.82
-0.02,0.43,0.89,-0.75,1.86,2.4,31.73
-0.02,0.43,0.9,-2.05,0.18,2.75,31.87
-0.03,0.42,0.89,-2.27,-1.05,3.22,31.82
-0.03,0.42,0.89,-1.6,-0.35,4.11,31.73
-0.03,0.42,0.88,-0.72,1.31,3.89,31.78
-0.04,0.42,0.86,0.27,3.25,4.14,31.82
-0.03,0.41,0.87,0.75,4.75,5.19,31.73
-0.02,0.41,0.88,1.36,4.78,5.63,31.78
-0.02,0.41,0.89,1.39,4.56,5.24,31.68
-0.03,0.41,0.89,1.39,3.37,3.69,31.73
-0.04,0.42,0.88,1.98,2.55,3.02,31.73
-0.04,0.43,0.88,1.59,2.84,3.18,31.78
-0.04,0.43,0.88,1.3,3.51,3.04,31.82
-0.04,0.43,0.88,0.56,3.34,2.26,31.68
-0.03,0.43,0.88,0.47,2.69,1.44,31.68
-0.03,0.43,0.89,0.78,1.88,0.92,31.73
-0.03,0.43,0.88,0.99,1.33,0.02,31.68
-0.03,0.43,0.87,0.66,1.57,-0.09,31.68
-0.03,0.43,0.89,0.17,1.53,0.14,31.82
-0.04,0.42,0.89,0.2,1.63,0.21,31.87
-0.04,0.42,0.89,0.6,1.34,0.14,31.78
-0.04,0.42,0.88,1.13,1.62,0.18,31.73
-0.04,0.42,0.88,1.27,1.98,0.35,31.73
-0.04,0.41,0.88,1.07,2.34,0.84,31.78
-0.04,0.41,0.88,0.56,2.63,2.12,31.73
-0.04,0.41,0.88,0.92,2.76,2.84,31.73
-0.03,0.41,0.89,1.1,2.87,2.73,31.78
-0.04,0.42,0.9,1.5,3.15,2.29,31.73
-0.03,0.41,0.89,2.02,3.83,1.77,31.73
-0.05,0.42,0.88,1.01,3.65,1.94,31.78
-0.04,0.41,0.88,0.35,2.72,2.63,31.73
-0.02,0.42,0.88,0.82,2.49,2.78,31.73
-0.04,0.43,0.88,0.47,1.28,1.8,31.78
-0.04,0.43,0.88,1.25,0.76,1.28,31.73
-0.06,0.43,0.87,1.91,2.27,1.82,31.82
-0.05,0.43,0.88,0.41,2.92,3.18,31.78
-0.05,0.42,0.88,-0.73,3.42,4.82,31.73
-0.03,0.41,0.89,-0.32,4.02,4.66,31.78
-0.03,0.41,0.89,0.21,3.36,3.01,31.78
-0.03,0.42,0.88,0.56,0.98,1.33,31.73
-0.04,0.43,0.89,1.22,-0.38,1.04,31.78
-0.03,0.43,0.89,1.85,0.26,1.45,31.87
-0.05,0.44,0.88,1.4,1.62,1.94,31.82
-0.04,0.43,0.88,0.41,1.53,2.44,31.78
-0.04,0.42,0.87,0.67,1.89,3.08,31.78
-0.03,0.41,0.87,1.47,2.73,3.59,31.73
-0.03,0.41,0.88,1.28,2.72,3.39,31.73
-0.03,0.41,0.89,1.19,1.6,2.64,31.78
-0.04,0.42,0.88,1.15,0.58,1.98,31.73
-0.04,0.43,0.88,0.95,0.56,2.29,31.78
-0.04,0.43,0.89,1.11,0.64,2.43,31.68
-0.04,0.44,0.88,0.96,0.64,2.46,31.73
-0.03,0.43,0.88,0.99,0.61,2.67,31.87
-0.04,0.43,0.89,0.75,1.25,2.9,31.78
-0.03,0.42,0.89,0.17,1.07,2.93,31.82
-0.04,0.42,0.89,0.7,1.18,2.06,31.73
-0.03,0.42,0.88,0.2,-0.27,1.13,31.78
-0.03,0.43,0.89,1.47,-1.01,0.69,31.73
-0.04,0.44,0.89,1.36,-1.25,0.81,31.82
-0.05,0.43,0.87,0.82,-1.48,0.82,31.78
-0.04,0.42,0.88,0.69,0.85,1.71,31.82
-0.04,0.41,0.88,-0.09,1.3,1.68,31.73
-0.04,0.41,0.87,-0.89,0.24,1.94,31.68
-0.04,0.42,0.89,-0.61,-0.4,1.69,31.82
-0.04,0.43,0.89,0.14,0.05,1.48,31.73
-0.03,0.43,0.89,0.6,0.4,1.45,31.78
-0.03,0.43,0.89,0.4,0.06,1.18,31.82
-0.02,0.43,0.87,-0.23,-0.37,1.05,31.82
-0.04,0.43,0.88,0.03,-0.53,0.4,31.78
-0.04,0.42,0.88,0.4,0.03,0.15,31.82
-0.05,0.42,0.87,0.79,0.78,1.1,31.82
-0.04,0.42,0.88,0.37,1.02,1.63,31.78
-0.04,0.42,0.89,0.15,0.61,1.8,31.73
-0.04,0.42,0.87,0.87,0.2,0.55,31.82
-0.04,0.43,0.87,1.15,-0.15,-0.44,31.78
-0.05,0.43,0.87,1.4,0.61,0.67,31.64
-0.03,0.43,0.89,1.24,2.76,3.54,31.73
-0.03,0.43,0.88,0.79,3.16,3.71,31.78
-0.03,0.43,0.88,1.24,2.67,4.08,31.73
-0.03,0.43,0.88,2.05,1.88,2.85,31.82
-0.04,0.43,0.87,1.77,1.19,1.66,31.68
-0.04,0.43,0.88,1.45,1.68,2.58,31.82
-0.04,0.42,0.88,1.71,2.5,3.22,31.82
-0.03,0.42,0.9,1.54,2.84,3.33,31.78
-0.03,0.42,0.88,1.39,1.11,1.56,31.73
-0.04,0.41,0.89,1.19,-0.24,0.43,31.82
-0.03,0.43,0.89,1.16,-0.75,0.34,31.87
-0.04,0.43,0.87,1.53,0.58,1.53,31.73
-0.04,0.44,0.87,2.11,1.83,3.04,31.78
-0.04,0.44,0.87,1.59,2.11,4.06,31.78
-0.03,0.43,0.89,1.51,0.69,3.3,31.82
-0.03,0.41,0.88,2.27,0.21,2.2,31.78
-0.04,0.42,0.87,2.9,1.66,2.2,31.78
-0.03,0.43,0.87,3.54,2.64,3.86,31.73
-0.03,0.42,0.86,4.78,2.85,4.47,31.82
-0.01,0.43,0.89,3.11,2.7,5.69,31.78
-0.02,0.43,0.89,2.9,0.53,3.02,31.73
-0.05,0.43,0.88,2.44,-0.5,-1.21,31.73
-0.06,0.44,0.87,3.04,0.35,-0.9,31.78
-0.05,0.44,0.88,2.5,1.82,2.23,31.82
-0.03,0.43,0.88,1.56,1.56,3.76,31.68
-0.02,0.43,0.87,2.85,0.79,3.16,31.78
-0.03,0.43,0.87,4.89,0.11,2.52,31.73
-0.03,0.44,0.86,7.33,-0.11,3.15,31.82
-0.03,0.44,0.87,9.48,2.5,4.73,31.87
-0.05,0.44,0.87,9.88,4.37,6.34,31.82
-0.04,0.44,0.87,9.97,4.03,6.43,31.73
-0.02,0.43,0.88,9.28,3.76,5.85,31.78
-0.03,0.43,0.89,9.59,3.97,4.05,31.73
-0.05,0.44,0.87,11.24,1.69,3.13,31.82
-0.06,0.45,0.86,13.53,-3.02,1.82,31.78
-0.06,0.47,0.86,14.87,-7.5,-2.67,31.82
-0.06,0.46,0.86,16.37,-8.32,-1.5,31.82
-0.04,0.47,0.89,19.77,-7.73,2.43,31.78
-0.02,0.46,0.87,21.34,-5.47,-0.49,31.73
0.02,0.45,0.87,24.26,-1.56,3.62,31.73
0.01,0.45,0.86,25.31,-1.22,0.96,31.78
-0.01,0.42,0.85,26.98,-3.66,-4.0,31.82
-0.01,0.42,0.85,27.62,-2.24,-0.99,31.82
0.02,0.47,0.85,24.12,2.55,7.91,31.87
0.02,0.5,0.84,18.56,3.65,9.62,31.82
-0.01,0.49,0.84,17.3,-0.37,7.88,31.82
-0.03,0.46,0.86,15.77,-3.98,8.56,31.78
-0.02,0.46,0.86,17.66,-3.01,13.77,31.73
-0.01,0.47,0.84,19.82,-0.63,21.3,31.82
0.01,0.46,0.87,15.63,3.95,25.22,31.78
-0.0,0.47,0.84,18.89,3.39,28.31,31.73
-0.01,0.47,0.82,22.89,5.28,40.99,31.82
-0.01,0.47,0.81,27.25,10.05,53.65,31.78
0.02,0.5,0.79,31.57,16.63,61.08,31.82
0.07,0.51,0.74,44.7,18.75,67.48,31.82
0.14,0.47,0.74,67.56,24.67,80.27,31.78
0.17,0.48,0.92,79.44,24.79,75.65,31.73
-0.05,0.58,0.98,69.56,7.94,53.25,31.82
-0.08,0.59,0.81,57.39,-2.98,39.97,31.78
-0.06,0.55,0.78,53.04,0.06,41.82,31.82
0.04,0.54,0.76,59.37,15.25,62.75,31.82
0.08,0.57,0.84,59.69,18.35,71.07,31.78
0.09,0.62,0.79,55.98,8.84,64.98,31.73
-0.02,0.66,0.81,47.18,-2.37,48.73,31.82
-0.04,0.62,0.79,45.83,-6.6,40.08,31.87
-0.0,0.61,0.79,45.6,-4.41,42.15,31.82
-0.02,0.62,0.79,45.37,-3.91,39.95,31.82
0.09,0.73,0.78,35.74,-16.35,39.71,31.78
0.03,0.65,0.83,37.69,-13.51,24.14,31.82
0.04,0.62,0.76,40.73,-5.8,22.81,31.92
0.09,0.62,0.68,38.85,-1.05,31.54,31.87
0.12,0.63,0.76,45.62,1.5,36.24,31.73
-0.02,0.68,0.75,28.34,-0.64,26.46,31.82
-0.05,0.69,0.75,19.3,-6.81,13.54,31.78
-0.04,0.69,0.79,4.08,-6.76,3.74,31.82
-0.1,0.7,0.77,-9.62,-7.39,-13.65,31.82
-0.07,0.65,0.74,-18.82,-6.08,-28.55,31.68
0.02,0.67,0.76,-23.92,1.91,-31.65,31.82
0.07,0.65,0.79,-27.59,2.69,-36.99,31.82
0.05,0.66,0.79,-38.18,-6.02,-50.32,31.78
-0.0,0.69,0.78,-57.82,-18.14,-72.43,31.92
-0.03,0.69,0.82,-81.1,-27.77,-94.4,31.82
-0.04,0.67,0.84,-98.46,-32.82,-112.4,31.87
0.02,0.62,0.82,-104.66,-31.25,-115.57,31.82
0.09,0.63,0.95,-103.53,-22.26,-106.24,31.82
0.11,0.56,0.84,-78.64,-9.27,-74.99,31.87
0.18,0.53,0.85,-66.35,-3.04,-62.63,31.82
0.19,0.5,0.74,-41.59,8.76,-39.54,31.73
0.11,0.51,0.76,-29.44,13.37,-27.77,31.78
0.08,0.55,0.82,-24.79,12.12,-25.69,31.73
-0.01,0.54,0.77,-37.22,-1.88,-29.02,31.92
-0.05,0.54,0.8,-40.02,-8.21,-31.53,31.87
-0.06,0.52,0.83,-41.62,-8.43,-28.72,31.82
-0.03,0.5,0.81,-37.71,-3.79,-23.63,31.82
0.03,0.51,0.81,-30.31,2.2,-16.76,31.78
0.02,0.5,0.81,-25.24,3.92,-13.22,31.73
0.03,0.49,0.82,-19.53,3.66,-8.56,31.87
0.04,0.5,0.83,-16.9,1.48,-7.31,31.87
0.0,0.49,0.82,-17.66,-2.66,-6.08,31.73
0.01,0.49,0.84,-19.33,-4.6,-3.53,31.87
0.0,0.49,0.86,-20.69,-5.08,-3.01,31.87
-0.0,0.47,0.84,-18.24,-5.08,-2.99,31.82
-0.0,0.46,0.84,-15.57,-4.02,-1.92,31.92
0.0,0.47,0.84,-14.44,-2.08,-0.26,31.87
-0.0,0.48,0.86,-13.57,-1.98,0.82,31.92
0.06,0.48,0.81,-13.92,-2.11,0.52,31.87
-0.01,0.47,0.86,-12.87,-4.11,0.93,31.87
-0.01,0.49,0.87,-12.03,-3.86,0.56,31.82
-0.0,0.49,0.88,-9.37,-3.13,-0.43,31.87
-0.01,0.47,0.85,-6.26,-1.89,-0.76,31.78
-0.02,0.45,0.84,-3.97,-0.08,1.01,31.82
-0.0,0.45,0.83,-3.5,1.3,4.08,31.78
0.02,0.46,0.85,-5.53,0.46,5.8,31.87
0.02,0.48,0.87,-8.89,-2.26,4.79,31.82
0.0,0.48,0.87,-7.65,-3.89,2.26,31.92
-0.01,0.48,0.88,-4.2,-2.79,0.02,31.87
-0.03,0.47,0.86,-2.32,-0.47,0.31,31.82
-0.02,0.46,0.86,-2.85,2.93,1.15,31.78
-0.0,0.45,0.87,-5.62,4.2,1.01,31.87
-0.0,0.45,0.87,-7.48,1.85,0.08,31.82
0.0,0.45,0.88,-7.22,-1.91,-0.82,31.78
0.01,0.46,0.86,-5.53,-3.94,-2.12,31.87
0.02,0.47,0.88,-4.78,-3.31,-2.2,31.82
0.01,0.48,0.86,-4.67,-0.47,-0.98,31.87
0.0,0.48,0.86,-4.66,1.83,-0.02,31.87
0.0,0.46,0.86,-4.44,1.57,0.2,31.82
0.01,0.45,0.87,-4.29,0.66,-0.72,31.92
-0.0,0.44,0.88,-3.97,-0.5,-1.45,31.87
-0.01,0.45,0.88,-4.05,-0.73,-1.66,31.73
-0.01,0.45,0.87,-4.69,-0.46,-1.39,31.87
-0.01,0.46,0.87,-4.38,0.31,-0.6,31.92
-0.01,0.45,0.87,-3.88,0.44,0.02,31.82
-0.0,0.45,0.86,-3.25,0.26,0.46,31.87
-0.0,0.45,0.87,-3.02,0.21,0.29,31.78
-0.0,0.45,0.87,-3.25,0.32,-0.06,31.82
-0.0,0.45,0.87,-3.71,0.63,-0.35,31.78
0.0,0.45,0.88,-3.13,1.13,-0.32,31.82
-0.0,0.45,0.87,-3.19,0.08,-0.85,31.82
-0.0,0.45,0.87,-3.05,-0.2,-0.82,31.92
-0.01,0.45,0.87,-1.37,0.49,0.15,31.87
-0.01,0.46,0.87,-1.5,0.29,0.82,31.82
-0.0,0.45,0.88,-2.11,1.07,0.56,31.78
-0.0,0.44,0.87,-2.99,1.47,-0.82,31.92
-0.02,0.44,0.88,-4.53,0.61,-1.73,31.82
-0.02,0.44,0.87,-5.27,-0.7,-1.59,31.87
-0.01,0.44,0.88,-4.23,-0.7,-1.73,31.87
-0.0,0.45,0.86,-3.33,-0.15,-1.11,31.82
0.01,0.45,0.87,-2.5,0.44,-0.26,31.87
0.01,0.45,0.87,-2.15,0.66,0.53,31.87
0.0,0.45,0.87,-2.47,1.22,0.41,31.73
-0.0,0.44,0.87,-2.31,1.16,0.17,31.82
-0.0,0.43,0.88,-1.4,1.01,0.29,31.78
-0.01,0.43,0.88,-0.81,1.47,1.05,31.92
-0.01,0.43,0.87,-0.44,2.11,1.77,31.78
-0.0,0.44,0.88,-0.55,1.97,1.42,31.78
-0.01,0.44,0.88,-1.44,1.22,0.35,31.82
-0.01,0.43,0.89,-1.48,0.49,0.03,31.78
-0.01,0.43,0.87,-1.34,1.18,0.6,31.87
0.0,0.44,0.87,-1.45,1.8,1.25,31.82
0.0,0.43,0.87,-1.74,1.11,0.52,31.78
-0.01,0.44,0.87,-1.63,0.69,-0.31,31.87
-0.01,0.44,0.87,-1.36,0.4,-0.38,31.82
-0.01,0.44,0.88,-1.18,1.68,0.38,31.73
-0.01,0.43,0.88,-1.11,2.58,1.47,31.87
-0.0,0.43,0.87,-0.85,2.73,1.33,31.92
0.0,0.44,0.88,-0.73,1.83,0.43,31.87
0.0,0.44,0.88,-0.41,0.75,-0.64,31.78
-0.01,0.44,0.88,-0.4,0.87,-0.55,31.82
-0.01,0.44,0.87,-1.01,1.37,0.21,31.78
-0.01,0.44,0.87,-1.37,2.03,0.76,31.87
-0.02,0.43,0.88,-1.11,1.92,0.78,31.82
-0.01,0.43,0.88,-0.85,1.65,0.82,31.87
-0.01,0.44,0.88,-0.93,1.21,0.76,31.87
-0.01,0.44,0.88,-1.48,1.48,0.82,31.82
-0.02,0.44,0.88,-1.51,1.91,1.25,31.82
-0.0,0.44,0.87,-0.9,2.12,1.37,31.78
0.0,0.44,0.87,-0.27,2.05,1.15,31.92
-0.0,0.43,0.87,-0.46,1.44,1.15,31.82
-0.01,0.44,0.88,-0.64,1.3,0.82,31.78
-0.01,0.44,0.88,-0.55,1.53,0.72,31.92
-0.01,0.44,0.88,-0.05,1.94,1.08,31.82
-0.01,0.43,0.87,0.17,2.11,1.05,31.87
-0.01,0.44,0.88,0.49,2.05,1.01,31.82
-0.01,0.44,0.88,0.0,1.48,0.58,31.73
-0.02,0.44,0.88,-0.41,0.85,0.05,31.78
-0.01,0.44,0.87,-0.43,0.93,-0.27,31.82
-0.01,0.44,0.88,-0.15,1.37,-0.27,31.82
-0.0,0.43,0.87,-0.02,1.53,-0.27,31.87
-0.01,0.43,0.87,-0.24,1.53,-0.23,31.82
-0.01,0.44,0.88,-0.75,0.99,-0.06,31.82
-0.01,0.43,0.88,0.69,0.49,0.46,31.78
-0.01,0.43,0.88,2.02,1.1,1.18,31.82
-0.01,0.43,0.86,3.24,1.66,2.0,31.82
-0.0,0.44,0.87,3.1,2.09,2.4,31.78
-0.01,0.44,0.88,1.73,1.31,2.96,31.82
-0.01,0.44,0.88,1.97,1.31,3.33,31.82
-0.01,0.43,0.88,2.95,1.68,2.92,31.87
-0.01,0.44,0.88,2.24,0.44,1.82,31.82
-0.03,0.44,0.88,2.12,0.11,1.19,31.92
-0.04,0.45,0.88,1.16,0.46,1.68,31.87
-0.04,0.44,0.87,-0.23,1.13,3.51,31.73
-0.02,0.43,0.88,-0.7,2.46,4.47,31.73
-0.0,0.42,0.88,-0.4,3.31,3.62,31.87
0.0,0.42,0.89,-0.73,2.24,2.64,31.73
-0.01,0.43,0.88,-0.35,0.82,2.18,31.82
0.0,0.44,0.88,1.27,0.66,2.11,31.78
0.01,0.46,0.88,2.41,1.4,2.09,31.87
0.01,0.46,0.86,1.71,1.68,2.05,31.82
-0.01,0.45,0.86,0.41,1.3,1.98,31.87
-0.0,0.44,0.87,-0.05,1.69,1.63,31.87
-0.01,0.43,0.88,-0.09,2.37,1.1,31.92
-0.01,0.42,0.87,0.44,2.63,0.7,31.82
-0.02,0.43,0.88,0.6,1.95,0.55,31.87
-0.01,0.43,0.88,-0.03,0.64,0.46,31.82
-0.02,0.44,0.87,-0.31,0.61,0.58,31.82
-0.01,0.45,0.88,-0.5,0.98,0.67,31.87
-0.01,0.44,0.88,0.08,1.65,1.42,31.92
-0.01,0.44,0.87,0.32,1.97,2.35,31.82
-0.0,0.44,0.87,0.4,1.94,2.52,31.87
-0.0,0.44,0.88,0.63,1.63,2.14,31.82
-0.0,0.43,0.88,1.1,2.29,2.29,31.82
-0.0,0.44,0.88,1.02,1.73,2.14,31.78
-0.01,0.44,0.88,1.65,1.56,1.69,31.92
-0.01,0.44,0.87,2.46,1.8,1.45,31.82
-0.03,0.45,0.88,1.66,1.28,1.71,31.87
-0.02,0.44,0.87,0.79,2.06,1.94,31.82
-0.02,0.44,0.87,-0.14,2.79,1.54,31.92
-0.01,0.43,0.87,-1.08,1.82,1.79,31.87
-0.01,0.43,0.88,-0.47,1.24,1.47,31.82
-0.02,0.44,0.88,0.69,1.3,0.9,31.82
-0.01,0.45,0.89,0.7,1.07,0.49,31.87
-0.01,0.45,0.87,0.37,0.81,0.37,31.82
-0.01,0.45,0.87,-0.17,0.96,0.72,31.82
-0.01,0.44,0.87,-0.23,1.16,0.6,31.78
-0.02,0.44,0.87,-0.23,1.5,0.7,31.82
-0.01,0.44,0.88,0.24,1.97,1.13,31.82
-0.01,0.42,0.88,0.7,2.32,2.12,31.82
-0.01,0.44,0.87,0.7,2.06,1.97,31.87
-0.01,0.43,0.88,0.69,1.62,1.15,31.82
-0.02,0.43,0.88,0.84,1.47,0.93,31.87
-0.01,0.44,0.88,1.16,1.62,1.54,31.78
-0.01,0.45,0.88,0.78,1.82,1.76,31.82
-0.01,0.44,0.88,0.37,1.77,0.99,31.78
-0.02,0.44,0.88,0.63,1.66,1.19,31.87
-0.01,0.44,0.88,0.64,1.62,1.57,31.82
-0.01,0.44,0.88,0.67,1.51,1.54,31.78
-0.01,0.43,0.88,0.69,1.51,1.1,31.78
-0.0,0.44,0.88,1.1,1.28,0.81,31.82
-0.02,0.44,0.87,1.27,1.1,0.82,31.82
-0.02,0.44,0.88,1.25,1.07,0.72,31.87
-0.02,0.44,0.88,0.98,1.33,0.87,31.92
-0.02,0.45,0.88,0.79,1.21,0.89,31.87
-0.01,0.44,0.87,1.04,1.47,1.48,31.78
-0.02,0.43,0.87,1.45,1.31,2.0,31.92
-0.01,0.44,0.88,1.47,1.53,1.95,31.87
-0.02,0.43,0.87,1.15,1.39,1.57,31.87
-0.02,0.44,0.88,1.02,1.45,1.57,31.82
-0.02,0.44,0.87,1.21,1.92,2.73,31.78
-0.01,0.44,0.88,1.25,1.79,2.96,31.68
-0.02,0.44,0.88,1.51,1.74,2.4,31.82
-0.02,0.45,0.88,1.47,1.24,2.21,31.82
-0.01,0.45,0.88,1.34,1.74,2.35,31.78
-0.01,0.45,0.87,1.47,1.62,2.41,31.92
-0.01,0.44,0.88,1.39,1.47,1.97,31.87
-0.01,0.45,0.88,1.39,0.84,1.5,31.87
-0.02,0.44,0.87,1.25,0.9,1.37,31.73
-0.01,0.45,0.88,1.4,1.07,1.59,31.78
-0.01,0.44,0.87,0.89,1.24,1.24,31.78
-0.01,0.44,0.87,0.47,1.13,0.84,31.82
-0.02,0.44,0.88,0.18,0.73,0.43,31.92
-0.01,0.44,0.87,0.31,0.98,0.63,31.87
-0.01,0.44,0.87,0.35,1.08,0.73,31.92
-0.01,0.44,0.87,0.41,1.02,0.72,31.92
-0.01,0.44,0.88,0.26,0.79,0.64,31.87
-0.01,0.44,0.87,0.66,0.73,1.01,31.82
-0.01,0.44,0.88,1.19,0.93,1.21,31.82
-0.01,0.44,0.88,1.45,0.95,0.9,31.87
-0.02,0.45,0.88,1.63,1.95,0.64,31.82
-0.03,0.44,0.88,1.39,2.47,1.31,31.82
-0.02,0.44,0.88,0.79,1.95,1.98,31.78
-0.01,0.43,0.88,1.02,1.01,1.88,31.92
-0.02,0.44,0.88,0.85,-0.44,1.16,31.82
-0.02,0.45,0.87,1.28,-0.63,1.01,31.87
-0.03,0.46,0.88,1.92,0.69,1.66,31.82
-0.04,0.46,0.88,0.41,1.04,2.92,31.92
-0.02,0.44,0.87,-0.03,2.46,4.43,31.82
-0.0,0.43,0.87,0.15,3.33,4.75,31.87
-0.0,0.42,0.87,-0.27,2.63,3.15,31.92
-0.0,0.43,0.88,-0.14,1.02,1.97,31.87
-0.01,0.44,0.88,0.87,0.17,1.79,31.78
-0.0,0.46,0.88,1.73,0.76,1.47,31.82
-0.01,0.46,0.87,1.42,1.3,1.44,31.87
-0.01,0.46,0.87,0.6,0.93,1.82,31.78
-0.02,0.45,0.86,-0.29,0.93,1.92,31.82
-0.02,0.43,0.87,-0.21,1.05,1.48,31.78
-0.02,0.43,0.87,0.34,1.11,0.64,31.78
-0.01,0.43,0.87,0.43,0.7,-0.09,31.82
-0.02,0.44,0.86,-0.15,-0.34,-0.11,31.82
-0.02,0.44,0.87,-0.64,-0.63,0.2,31.87
-0.02,0.45,0.87,-0.87,-0.06,0.55,31.73
-0.02,0.46,0.88,-0.69,0.61,0.81,31.82
-0.01,0.45,0.87,-0.43,0.43,1.11,31.87
-0.02,0.45,0.87,-0.11,0.05,1.31,31.82
-0.02,0.45,0.87,-0.06,-0.26,1.37,31.82
-0.01,0.44,0.88,0.11,0.52,1.91,31.87
-0.0,0.44,0.87,0.09,0.89,1.92,31.82
-0.01,0.44,0.87,-0.05,0.21,1.27,31.82
-0.01,0.44,0.88,0.84,-0.06,0.72,31.78
-0.02,0.45,0.88,0.21,-1.1,0.7,31.82
-0.02,0.45,0.86,0.69,-0.4,1.69,31.82
-0.01,0.44,0.87,-0.26,0.93,1.36,31.82
-0.02,0.44,0.87,-1.28,0.92,0.81,31.78
-0.01,0.43,0.87,-1.5,-0.03,0.96,31.73
-0.01,0.44,0.88,-2.0,-1.08,0.76,31.97
-0.0,0.45,0.87,-0.85,-1.25,0.35,31.87
-0.01,0.45,0.87,-0.2,-0.61,0.09,31.82
-0.0,0.45,0.88,-0.56,-0.31,-0.02,31.78
-0.02,0.45,0.88,-1.27,-0.38,0.06,31.78
-0.02,0.43,0.87,-1.44,0.02,0.47,31.92
-0.01,0.43,0.88,-0.9,0.37,0.47,31.78
-0.01,0.44,0.87,0.06,0.52,0.58,31.87
-0.02,0.44,0.88,0.24,0.6,0.38,31.82
-0.01,0.43,0.87,-0.23,0.43,0.27,31.82
-0.01,0.44,0.88,-0.47,0.4,0.5,31.78
-0.01,0.44,0.87,-0.23,0.78,0.38,31.82
-0.02,0.45,0.87,0.03,0.44,0.6,31.82
-0.02,0.45,0.88,0.05,0.58,0.76,31.78
-0.01,0.44,0.88,-0.29,0.75,0.85,31.92
-0.01,0.44,0.87,-0.38,0.41,0.66,31.92
-0.01,0.44,0.88,-0.02,0.49,0.56,31.78
-0.01,0.44,0.88,0.2,0.53,0.61,31.92
-0.01,0.44,0.88,0.24,0.14,0.73,31.82
-0.01,0.44,0.87,0.58,0.06,0.64,31.87
-0.01,0.44,0.87,0.81,0.03,0.53,31.97
-0.01,0.44,0.88,0.85,0.14,1.1,31.82
-0.01,0.44,0.87,1.05,0.32,1.24,31.92
-0.02,0.44,0.88,0.99,0.64,1.21,31.87
-0.02,0.44,0.88,0.76,0.09,1.05,31.82
-0.02,0.43,0.88,0.64,0.47,1.36,31.87
-0.02,0.44,0.87,0.69,0.67,1.45,31.87
-0.0,0.44,0.88,0.84,0.72,1.54,31.73
-0.01,0.44,0.87,1.02,0.81,1.69,31.78
-0.01,0.44,0.88,0.69,0.5,1.1,31.87
-0.01,0.44,0.88,0.64,0.29,0.98,31.82
-0.01,0.44,0.88,0.95,0.5,1.48,31.87
-0.01,0.45,0.88,0.78,0.66,1.77,31.78
-0.0,0.45,0.87,0.69,0.5,1.53,31.82
-0.01,0.45,0.87,0.67,0.34,1.11,31.82
-0.02,0.44,0.88,0.93,0.26,0.92,31.97
-0.01,0.45,0.88,0.98,0.29,0.82,31.82
-0.01,0.45,0.87,0.31,0.35,0.63,31.92
-0.01,0.44,0.87,-0.12,0.47,0.47,31.78
-0.02,0.44,0.88,0.09,0.09,0.14,31.92
-0.02,0.44,0.87,0.15,-0.11,0.0,31.92
-0.02,0.44,0.88,-0.11,-0.17,-0.02,31.87
-0.01,0.45,0.87,0.0,0.0,0.27,31.92
-0.01,0.44,0.87,-0.34,0.11,0.47,31.73
-0.01,0.44,0.88,-0.46,-0.15,0.7,31.78
-0.01,0.44,0.87,-0.14,-0.34,0.69,31.82
-0.01,0.44,0.88,0.44,0.12,0.61,31.82
-0.01,0.44,0.88,0.85,0.56,0.61,31.78
-0.02,0.43,0.87,1.01,1.22,0.79,31.82
-0.02,0.44,0.87,0.24,1.05,1.21,31.82
-0.01,0.43,0.88,0.09,0.31,1.36,31.78
-0.0,0.43,0.87,0.82,-0.29,1.02,31.87
-0.0,0.45,0.87,0.52,-1.1,0.79,31.92
-0.01,0.46,0.86,0.99,-0.82,1.01,31.87
-0.02,0.45,0.88,0.85,-0.67,1.28,31.87
-0.03,0.45,0.88,-0.21,0.11,2.21,31.82
-0.01,0.44,0.87,-0.41,0.92,3.08,31.87
-0.0,0.43,0.87,-0.5,2.23,3.01,31.78
0.0,0.42,0.88,-0.35,1.76,2.12,31.82
0.0,0.43,0.88,0.23,0.76,1.59,31.82
-0.0,0.44,0.88,1.08,-0.52,0.93,31.87
-0.01,0.46,0.87,1.22,-1.11,0.47,31.92
-0.01,0.46,0.86,0.32,-0.29,0.87,31.87
-0.01,0.46,0.87,-0.96,0.82,1.56,31.87
-0.0,0.45,0.86,-1.18,1.18,1.5,31.92
-0.0,0.44,0.87,-0.6,1.02,0.98,31.97
0.0,0.43,0.88,0.2,0.46,0.15,31.87
-0.0,0.43,0.89,0.43,0.09,-0.52,31.92
-0.01,0.44,0.88,0.03,-0.37,-0.63,31.87
-0.02,0.44,0.88,-0.66,-0.73,-0.08,31.87
-0.02,0.45,0.88,-0.81,0.11,0.49,31.82
-0.01,0.44,0.88,-0.4,0.58,0.52,31.82
-0.01,0.44,0.88,0.02,0.41,0.82,31.87
-0.0,0.44,0.88,0.17,0.14,1.22,31.82
-0.01,0.44,0.88,-0.09,0.47,1.42,31.87
-0.0,0.44,0.88,0.05,0.96,1.34,31.87
0.0,0.43,0.88,0.4,1.37,1.15,31.82
