acc_x,acc_y,acc_z,gyro_x,gyro_y,gyro_z,temp
-0.0,0.44,0.88,0.58,0.75,1.82,32.29
-0.0,0.44,0.88,0.23,0.78,2.09,32.34
-0.0,0.43,0.88,0.84,1.53,2.12,32.34
0.0,0.43,0.88,0.49,1.22,1.51,32.29
-0.0,0.44,0.87,0.4,0.31,0.61,32.44
-0.01,0.45,0.88,0.58,-0.06,0.17,32.34
-0.02,0.45,0.88,0.12,-0.73,0.53,32.29
-0.01,0.45,0.88,0.58,0.27,1.01,32.34
-0.0,0.44,0.88,-0.14,1.82,1.13,32.29
-0.01,0.43,0.87,-1.51,0.61,0.11,32.29
-0.0,0.44,0.88,-1.94,0.21,-0.27,32.34
-0.01,0.43,0.88,-0.72,-0.14,0.06,32.39
0.0,0.44,0.88,0.09,-0.21,-0.03,32.29
-0.01,0.44,0.89,0.06,-0.2,-0.02,32.25
-0.01,0.44,0.88,-0.75,0.44,0.18,32.29
-0.01,0.44,0.87,-1.11,0.6,0.58,32.29
-0.0,0.44,0.89,-0.03,1.01,1.01,32.44
-0.01,0.43,0.88,0.81,1.08,1.27,32.29
-0.01,0.43,0.87,0.82,0.96,1.27,32.39
-0.0,0.44,0.88,0.35,1.28,1.18,32.25
-0.01,0.43,0.88,-0.23,0.82,1.04,32.29
-0.01,0.44,0.88,0.03,0.66,1.28,32.34
-0.01,0.44,0.88,0.37,0.73,1.37,32.25
-0.0,0.44,0.86,0.49,0.7,1.39,32.29
-0.0,0.44,0.88,0.2,0.66,1.22,32.25
-0.0,0.44,0.88,0.29,0.41,1.27,32.34
0.0,0.44,0.87,0.23,0.49,1.01,32.29
-0.0,0.44,0.87,0.46,0.44,0.7,32.25
0.0,0.43,0.88,0.63,0.72,0.7,32.29
-0.0,0.44,0.89,0.61,0.52,0.87,32.29
-0.01,0.44,0.87,0.64,0.27,0.87,32.25
-0.0,0.43,0.88,0.85,0.31,0.76,32.29
-0.01,0.44,0.88,0.84,0.29,0.66,32.29
-0.01,0.44,0.88,1.08,0.52,1.37,32.25
-0.0,0.43,0.88,0.89,1.08,1.68,32.39
-0.0,0.44,0.87,0.95,1.3,1.91,32.34
0.0,0.43,0.88,0.79,0.78,1.47,32.34
-0.01,0.44,0.88,1.15,0.76,1.42,32.39
-0.01,0.43,0.88,1.13,1.07,1.86,32.44
-0.0,0.43,0.87,0.9,1.21,2.27,32.25
0.0,0.45,0.88,0.47,1.59,2.31,32.39
-0.0,0.44,0.87,0.32,1.37,1.8,32.29
-0.0,0.45,0.87,0.43,1.07,1.4,32.34
-0.0,0.44,0.88,0.43,1.3,1.62,32.39
0.0,0.45,0.87,0.35,1.27,1.22,32.34
-0.0,0.44,0.88,0.35,0.93,0.99,32.29
-0.01,0.44,0.86,-0.11,1.01,0.92,32.39
-0.01,0.45,0.87,-0.31,0.73,0.7,32.34
-0.0,0.44,0.88,0.15,1.27,0.44,32.39
-0.01,0.44,0.86,0.12,1.11,0.4,32.39
-0.01,0.44,0.87,0.0,0.87,0.21,32.34
-0.01,0.43,0.89,-0.29,0.69,0.32,32.29
-0.0,0.44,0.88,-0.05,0.56,0.24,32.29
-0.01,0.43,0.87,0.12,1.05,0.46,32.34
0.0,0.43,0.88,0.17,1.42,0.78,32.29
-0.01,0.43,0.87,0.35,1.48,0.89,32.34
-0.01,0.44,0.88,0.17,1.45,0.99,32.34
-0.01,0.43,0.88,0.75,1.36,1.05,32.29
-0.0,0.44,0.87,1.4,1.88,1.27,32.34
-0.01,0.44,0.87,2.02,2.37,1.48,32.25
-0.02,0.44,0.87,1.94,2.87,1.71,32.39
-0.0,0.44,0.88,1.28,2.11,2.23,32.34
-0.0,0.44,0.88,1.6,1.63,2.32,32.25
-0.0,0.44,0.89,2.29,0.56,1.33,32.39
-0.01,0.44,0.87,2.15,0.67,1.37,32.34
-0.01,0.45,0.87,1.88,1.63,1.63,32.39
-0.01,0.45,0.88,1.01,1.8,1.71,32.29
-0.02,0.45,0.87,0.84,2.15,2.12,32.34
-0.01,0.43,0.88,1.54,2.93,3.8,32.29
0.0,0.42,0.88,1.85,3.68,3.28,32.39
0.01,0.43,0.87,1.25,3.57,2.35,32.34
-0.0,0.43,0.88,0.79,2.32,1.85,32.29
-0.0,0.44,0.87,1.88,1.69,2.12,32.34
-0.0,0.46,0.86,2.72,3.04,3.02,32.34
0.0,0.47,0.86,2.37,5.4,5.76,32.29
0.0,0.46,0.88,1.45,6.27,7.71,32.29
-0.01,0.44,0.87,1.07,7.15,8.41,32.25
-0.01,0.43,0.86,1.91,7.62,8.66,32.29
-0.02,0.44,0.88,1.83,7.15,7.63,32.34
-0.03,0.44,0.88,1.65,5.83,6.08,32.39
-0.04,0.45,0.86,1.53,5.89,5.08,32.29
-0.02,0.46,0.87,0.81,6.82,5.02,32.34
-0.02,0.44,0.86,3.19,6.85,4.35,32.29
0.01,0.44,0.88,4.79,8.38,6.23,32.29
0.01,0.44,0.89,4.38,6.0,5.37,32.34
-0.01,0.44,0.88,3.63,2.99,3.97,32.29
-0.02,0.43,0.87,2.47,2.29,3.91,32.29
-0.02,0.43,0.87,1.51,2.18,3.8,32.25
-0.03,0.45,0.88,-0.52,1.56,3.27,32.29
-0.01,0.45,0.89,-2.5,2.37,3.83,32.44
-0.02,0.45,0.9,-3.31,2.17,2.35,32.44
-0.03,0.46,0.88,-4.14,0.43,2.06,32.39
-0.01,0.45,0.87,-3.59,0.66,3.54,32.34
-0.01,0.45,0.87,-4.55,2.23,3.42,32.29
0.0,0.43,0.86,-4.98,2.93,3.65,32.2
-0.01,0.43,0.87,-4.76,2.27,4.21,32.25
-0.01,0.43,0.87,-3.33,1.66,3.31,32.39
-0.02,0.44,0.87,-0.98,2.69,3.73,32.29
-0.01,0.45,0.88,-1.16,3.56,4.67,32.25
-0.01,0.46,0.88,-1.57,3.47,4.73,32.29
-0.01,0.44,0.88,-0.87,2.89,4.35,32.34
-0.02,0.43,0.88,0.18,2.24,3.91,32.25
-0.03,0.42,0.87,-0.37,1.82,4.2,32.29
-0.02,0.44,0.87,-2.05,2.12,4.69,32.25
-0.01,0.44,0.88,-3.33,3.07,5.15,32.34
-0.03,0.44,0.87,-2.43,3.59,5.05,32.2
-0.01,0.44,0.89,-2.56,3.04,4.35,32.34
-0.02,0.44,0.88,-1.77,1.86,2.95,32.39
-0.02,0.43,0.87,-1.25,2.35,3.05,32.39
-0.01,0.43,0.87,-0.98,2.32,3.4,32.34
-0.01,0.44,0.87,-1.94,2.29,3.88,32.2
-0.01,0.44,0.88,-1.92,1.89,3.85,32.39
-0.01,0.44,0.88,-0.98,2.17,3.16,32.34
-0.02,0.44,0.86,-0.12,2.63,3.31,32.29
-0.02,0.43,0.88,0.06,2.14,2.17,32.25
-0.01,0.43,0.89,0.0,1.74,1.97,32.34
-0.02,0.43,0.87,0.23,1.57,1.86,32.39
-0.02,0.43,0.87,0.72,1.5,2.7,32.34
-0.02,0.43,0.87,3.24,3.28,3.98,32.34
-0.02,0.47,0.89,4.92,4.89,6.24,32.29
-0.02,0.44,0.88,2.67,1.53,2.87,32.25
-0.02,0.44,0.87,0.9,0.09,3.19,32.39
-0.03,0.44,0.89,-1.08,0.32,3.71,32.39
-0.03,0.44,0.88,1.04,1.05,3.83,32.25
-0.02,0.45,0.88,1.16,1.6,2.89,32.39
-0.02,0.44,0.87,1.19,-0.23,2.34,32.34
-0.01,0.44,0.87,1.19,-1.27,1.94,32.34
-0.01,0.45,0.88,0.32,-0.55,0.67,32.39
-0.01,0.44,0.87,1.11,-0.05,0.11,32.34
-0.02,0.45,0.88,0.79,-0.17,-1.15,32.34
-0.02,0.44,0.87,0.44,-1.56,-2.49,32.29
-0.02,0.43,0.87,1.07,-3.1,-2.46,32.34
-0.02,0.45,0.87,2.0,-2.7,-1.71,32.29
-0.01,0.44,0.87,1.97,-0.63,0.09,32.29
-0.02,0.44,0.87,-0.05,-0.38,1.53,32.44
-0.01,0.44,0.89,-1.36,-1.48,2.81,32.2
-0.01,0.45,0.87,-1.76,-1.83,3.54,32.34
-0.01,0.45,0.85,-0.31,-2.32,3.54,32.34
0.0,0.45,0.91,-1.01,-3.28,3.79,32.39
0.02,0.45,0.91,-3.71,-4.35,4.37,32.34
0.0,0.42,0.88,-5.02,-3.36,5.8,32.25
-0.02,0.41,0.85,-6.15,0.43,10.2,32.39
-0.02,0.42,0.87,-6.75,3.83,13.57,32.39
-0.01,0.42,0.89,-6.06,5.45,14.15,32.34
-0.01,0.42,0.89,-3.97,6.08,11.63,32.29
-0.02,0.42,0.87,-1.33,5.45,8.92,32.25
-0.01,0.41,0.88,-1.08,3.54,7.42,32.39
-0.0,0.41,0.87,-0.7,3.01,6.24,32.29
-0.0,0.42,0.87,-1.53,3.07,4.99,32.34
-0.01,0.44,0.88,-2.29,3.85,4.09,32.39
-0.0,0.44,0.89,-1.21,3.36,2.06,32.39
-0.0,0.43,0.88,-0.7,1.71,-0.44,32.34
0.0,0.42,0.89,1.19,-0.55,0.46,32.29
0.02,0.42,0.9,0.52,-2.92,0.61,32.39
0.0,0.41,0.89,2.61,-4.49,-3.76,32.34
-0.0,0.37,0.91,5.27,-2.61,-0.14,32.29
-0.02,0.43,0.85,7.02,-3.19,-2.87,32.25
-0.03,0.45,0.85,6.56,2.78,-3.16,32.25
-0.01,0.45,0.85,9.54,6.21,-2.29,32.29
-0.0,0.44,0.88,10.93,5.68,-2.56,32.25
-0.01,0.43,0.89,12.35,1.88,-2.9,32.29
-0.0,0.43,0.89,13.95,0.5,-4.2,32.39
-0.01,0.42,0.91,14.84,-1.1,-2.89,32.25
-0.03,0.45,0.85,11.1,-7.36,-8.03,32.39
-0.01,0.46,0.86,12.81,-0.81,-3.86,32.29
-0.0,0.47,0.89,12.61,4.43,1.95,32.34
-0.0,0.47,0.88,11.51,5.45,2.85,32.39
-0.01,0.47,0.88,10.78,4.98,2.09,32.34
-0.0,0.46,0.87,10.0,4.5,2.87,32.34
0.0,0.44,0.89,10.44,4.23,4.37,32.39
-0.0,0.43,0.88,12.79,4.53,4.56,32.34
0.0,0.44,0.88,13.47,6.53,7.42,32.34
0.0,0.44,0.88,13.85,5.71,7.3,32.39
-0.03,0.46,0.88,12.38,3.79,6.24,32.34
-0.02,0.47,0.88,12.14,4.37,7.54,32.39
0.0,0.47,0.88,12.53,4.6,8.6,32.29
-0.0,0.47,0.88,13.6,4.17,7.34,32.34
-0.0,0.47,0.87,14.9,4.43,7.28,32.29
-0.0,0.46,0.88,14.67,3.01,5.54,32.2
-0.02,0.46,0.86,14.05,1.76,5.4,32.25
-0.04,0.48,0.87,9.04,2.0,3.79,32.39
-0.05,0.47,0.87,12.12,5.42,3.34,32.25
-0.01,0.47,0.86,4.5,0.66,3.68,32.25
0.02,0.47,0.87,10.06,0.47,3.86,32.29
0.01,0.47,0.85,12.11,0.24,1.83,32.34
0.01,0.47,0.85,12.12,-0.58,0.73,32.39
0.03,0.47,0.86,11.76,1.04,1.37,32.29
0.02,0.48,0.85,11.76,1.57,1.04,32.44
0.02,0.48,0.85,13.18,2.14,1.5,32.39
0.02,0.49,0.84,12.24,1.3,1.45,32.39
0.0,0.51,0.85,9.88,-0.44,-0.31,32.34
-0.03,0.5,0.85,7.3,-0.37,-0.76,32.29
-0.03,0.5,0.85,8.08,1.21,1.66,32.44
-0.01,0.5,0.84,8.73,3.79,4.95,32.34
-0.01,0.49,0.83,9.95,5.83,5.25,32.39
0.0,0.49,0.83,10.53,5.69,4.23,32.34
-0.02,0.49,0.85,10.34,5.15,3.1,32.44
-0.05,0.49,0.84,9.08,7.21,4.47,32.29
-0.05,0.5,0.81,12.69,4.27,4.79,32.29
-0.03,0.51,0.81,12.31,6.21,6.64,32.25
0.0,0.51,0.81,10.31,9.48,10.26,32.2
0.02,0.51,0.83,8.17,8.49,8.4,32.34
0.0,0.51,0.82,7.66,5.22,3.65,32.39
0.01,0.52,0.81,7.86,4.56,2.03,32.29
0.03,0.52,0.82,7.02,6.69,3.86,32.25
0.01,0.52,0.83,6.76,7.98,3.4,32.29
0.0,0.52,0.84,7.16,7.56,3.21,32.29
-0.0,0.53,0.82,7.94,6.84,3.13,32.34
-0.01,0.53,0.82,8.08,6.17,2.67,32.39
-0.02,0.55,0.82,7.37,5.51,1.71,32.39
-0.03,0.54,0.83,6.96,4.87,1.57,32.44
-0.05,0.53,0.84,7.88,4.46,1.77,32.29
-0.07,0.55,0.81,5.71,4.78,3.44,32.34
-0.07,0.55,0.83,3.16,5.91,3.79,32.34
-0.04,0.53,0.82,4.92,6.44,5.5,32.29
-0.0,0.52,0.84,3.31,3.97,4.64,32.44
0.01,0.5,0.84,4.78,1.45,0.38,32.29
-0.02,0.52,0.82,8.63,0.05,-3.73,32.39
-0.02,0.51,0.81,9.27,0.38,-4.79,32.44
-0.03,0.51,0.81,8.26,2.38,-1.6,32.29
-0.02,0.53,0.81,5.4,6.26,0.78,32.29
-0.01,0.54,0.83,3.59,7.5,0.14,32.34
-0.02,0.53,0.84,4.32,4.84,-2.18,32.39
-0.04,0.53,0.84,5.19,2.14,-3.33,32.29
-0.05,0.55,0.82,3.34,1.76,-2.6,32.34
-0.05,0.55,0.8,1.98,4.11,-0.26,32.2
-0.06,0.56,0.82,-0.44,5.97,0.12,32.25
-0.07,0.56,0.82,0.15,5.68,-0.05,32.25
-0.07,0.54,0.83,0.64,4.49,-0.09,32.39
-0.04,0.53,0.82,-1.73,5.94,0.55,32.34
-0.05,0.52,0.83,-2.96,5.45,-1.65,32.34
-0.05,0.51,0.82,-2.4,4.4,-2.27,32.29
-0.05,0.53,0.81,-1.94,3.59,0.82,32.34
-0.03,0.53,0.81,-3.92,3.65,2.0,32.39
-0.04,0.54,0.82,-4.85,3.86,1.19,32.29
-0.04,0.52,0.81,-4.69,3.71,0.69,32.34
-0.05,0.52,0.8,-4.18,2.9,0.43,32.29
-0.05,0.51,0.81,-5.57,3.74,1.33,32.29
-0.05,0.51,0.81,-5.08,4.08,2.6,32.34
-0.03,0.52,0.82,-5.66,3.5,3.73,32.29
-0.03,0.52,0.82,-5.92,2.58,2.47,32.34
-0.03,0.52,0.82,-3.3,2.95,2.46,32.34
-0.03,0.51,0.84,-2.92,2.6,1.18,32.29
-0.04,0.52,0.83,-3.59,1.74,-0.53,32.29
-0.05,0.52,0.84,-4.34,1.97,-1.02,32.34
-0.05,0.52,0.84,-4.7,1.34,-0.37,32.29
-0.04,0.52,0.83,-5.37,0.73,0.79,32.34
-0.02,0.52,0.83,-6.46,1.94,1.53,32.44
-0.03,0.52,0.85,-7.51,1.42,-0.99,32.29
-0.05,0.51,0.85,-8.17,-0.58,-4.06,32.34
-0.06,0.51,0.82,-7.3,-0.27,-4.43,32.39
-0.06,0.52,0.83,-7.48,-0.06,-3.02,32.39
-0.06,0.53,0.84,-8.14,0.47,-2.81,32.34
-0.04,0.52,0.83,-7.05,1.27,-4.43,32.29
-0.05,0.5,0.83,-6.44,1.15,-6.41,32.39
-0.05,0.49,0.83,-6.76,-0.03,-7.39,32.44
-0.05,0.5,0.83,-7.22,-1.02,-7.79,32.39
-0.05,0.51,0.83,-8.38,-1.65,-7.86,32.39
-0.04,0.51,0.83,-9.27,-2.41,-8.14,32.44
-0.04,0.5,0.81,-9.05,-2.47,-7.42,32.39
-0.03,0.51,0.82,-8.02,-1.83,-6.35,32.34
-0.02,0.5,0.84,-6.14,-1.53,-5.6,32.34
-0.03,0.5,0.84,-4.63,-0.2,-5.89,32.29
-0.03,0.48,0.84,-3.56,0.93,-6.47,32.34
-0.03,0.48,0.85,-3.08,1.05,-6.63,32.34
-0.04,0.48,0.85,-3.68,-0.4,-6.61,32.39
-0.05,0.49,0.85,-6.23,-2.56,-7.33,32.39
-0.04,0.5,0.84,-8.76,-4.9,-7.98,32.44
-0.04,0.5,0.84,-11.02,-6.2,-9.15,32.29
-0.05,0.49,0.85,-10.31,-6.2,-10.38,32.25
-0.04,0.48,0.84,-8.31,-3.63,-9.33,32.29
-0.03,0.48,0.87,-7.05,-0.89,-8.14,32.29
-0.05,0.48,0.86,-6.05,0.85,-7.3,32.34
-0.05,0.48,0.85,-7.05,2.12,-5.56,32.29
-0.04,0.49,0.88,-9.39,-0.24,-6.32,32.29
-0.06,0.47,0.87,-10.05,-3.37,-8.58,32.34
-0.06,0.48,0.86,-10.82,-5.01,-10.02,32.2
-0.06,0.48,0.86,-13.11,-5.69,-10.09,32.39
-0.05,0.48,0.86,-15.18,-6.49,-9.59,32.34
-0.04,0.47,0.87,-16.15,-6.73,-8.47,32.29
-0.04,0.45,0.87,-16.26,-6.37,-7.65,32.25
-0.04,0.45,0.88,-15.91,-6.08,-7.15,32.25
-0.05,0.45,0.86,-15.08,-5.63,-6.73,32.29
-0.04,0.45,0.85,-13.01,-4.61,-5.24,32.25
-0.05,0.46,0.83,-10.06,-2.7,-3.02,32.25
-0.04,0.47,0.85,-8.66,-0.89,-2.26,32.29
-0.03,0.47,0.86,-6.29,0.76,-2.05,32.44
-0.03,0.48,0.87,-3.74,1.53,-3.1,32.39
-0.05,0.47,0.86,-1.16,1.53,-3.73,32.29
-0.06,0.46,0.84,1.74,4.06,-1.16,32.34
-0.03,0.45,0.86,1.88,7.36,1.47,32.39
-0.04,0.46,0.9,-2.73,5.19,-0.46,32.29
-0.06,0.48,0.91,-3.69,0.26,-3.71,32.34
-0.08,0.48,0.87,-0.12,-0.9,-3.3,32.29
-0.05,0.49,0.87,1.95,0.44,-1.74,32.25
-0.04,0.5,0.86,-2.05,1.34,-0.78,32.25
-0.04,0.48,0.85,-6.82,-0.38,-1.69,32.29
-0.07,0.46,0.84,-8.21,-1.57,-3.25,32.34
-0.07,0.47,0.85,-7.15,-2.85,-2.89,32.25
-0.08,0.47,0.86,-5.82,-2.4,-1.91,32.29
-0.07,0.44,0.85,-4.37,-1.74,0.21,32.39
-0.05,0.43,0.86,-4.4,-0.27,1.28,32.34
-0.04,0.43,0.85,-5.36,-0.85,0.96,32.39
-0.04,0.43,0.87,-4.84,-3.74,0.09,32.34
-0.03,0.44,0.87,-1.8,-5.24,0.69,32.29
-0.01,0.46,0.84,0.46,-4.29,3.25,32.29
-0.01,0.46,0.86,-0.85,-1.82,5.45,32.25
-0.01,0.46,0.85,-1.88,-0.98,5.47,32.29
-0.0,0.44,0.84,-1.56,-0.11,6.9,32.2
-0.01,0.44,0.85,-2.6,0.34,8.17,32.34
-0.01,0.42,0.87,-2.18,-0.89,7.63,32.29
-0.02,0.42,0.87,-0.5,-0.73,7.95,32.29
-0.03,0.43,0.88,-0.38,-0.5,9.1,32.25
-0.04,0.44,0.88,-0.89,-0.4,8.26,32.29
-0.04,0.46,0.88,-0.95,-0.34,7.37,32.25
-0.05,0.46,0.89,-1.44,-0.15,6.69,32.34
-0.05,0.46,0.89,-1.11,-1.01,5.24,32.29
-0.05,0.46,0.88,-0.78,-1.76,3.77,32.34
-0.05,0.46,0.89,-1.25,-2.14,3.1,32.25
-0.03,0.45,0.87,-2.69,-3.54,1.51,32.29
-0.03,0.46,0.87,-3.37,-2.82,-0.12,32.34
-0.04,0.46,0.87,-2.78,-2.24,-0.61,32.29
-0.04,0.46,0.87,-1.83,-2.31,-0.47,32.39
-0.02,0.46,0.88,-1.85,-1.91,-0.81,32.34
-0.03,0.45,0.87,-1.63,-1.8,-2.69,32.29
-0.04,0.45,0.87,-2.84,-2.37,-3.4,32.39
-0.04,0.44,0.87,-3.07,-2.69,-3.34,32.34
-0.03,0.44,0.87,-2.75,-2.0,-2.11,32.29
-0.02,0.45,0.87,-2.5,-0.6,-0.52,32.34
-0.01,0.45,0.87,-3.44,-0.2,0.09,32.25
-0.02,0.45,0.87,-3.8,-0.6,-0.76,32.29
-0.02,0.44,0.87,-3.98,-1.76,-1.94,32.34
-0.03,0.44,0.87,-3.6,-1.13,-2.47,32.2
-0.03,0.44,0.88,-3.57,-0.2,-1.71,32.29
-0.04,0.44,0.88,-3.97,-0.18,-1.45,32.34
-0.05,0.43,0.88,-4.05,0.89,-0.53,32.2
-0.04,0.43,0.88,-4.29,2.17,0.96,32.39
-0.05,0.42,0.89,-4.6,2.38,1.07,32.34
-0.05,0.42,0.89,-5.48,2.82,1.82,32.29
-0.05,0.42,0.89,-5.66,3.77,3.5,32.39
-0.04,0.43,0.9,-6.44,4.81,3.94,32.34
-0.05,0.43,0.9,-6.76,5.08,4.17,32.29
-0.04,0.42,0.89,-6.9,5.65,3.8,32.44
-0.05,0.43,0.89,-7.44,6.15,3.68,32.34
-0.05,0.42,0.89,-7.24,6.72,4.56,32.29
-0.05,0.43,0.89,-7.19,6.64,4.44,32.29
-0.06,0.43,0.89,-7.83,7.15,4.14,32.29
-0.06,0.42,0.87,-8.17,6.41,3.74,32.2
-0.06,0.42,0.88,-6.85,6.55,4.06,32.44
-0.05,0.42,0.88,-6.69,6.0,3.21,32.39
-0.05,0.42,0.9,-6.95,4.53,1.57,32.29
-0.05,0.42,0.87,-5.74,3.74,0.73,32.25
-0.06,0.43,0.87,-4.87,4.37,1.13,32.39
-0.05,0.42,0.87,-5.01,4.11,1.48,32.34
-0.05,0.42,0.88,-4.87,3.8,1.62,32.25
-0.04,0.41,0.88,-4.69,3.57,3.05,32.29
-0.04,0.41,0.88,-3.82,3.3,2.79,32.29
-0.04,0.41,0.87,-3.47,3.37,3.1,32.34
-0.04,0.41,0.88,-2.85,2.66,3.07,32.29
-0.04,0.41,0.88,-1.73,2.63,2.56,32.34
-0.05,0.41,0.88,-1.33,2.15,2.84,32.25
-0.04,0.41,0.88,-1.79,1.24,2.81,32.29
-0.03,0.4,0.89,-1.34,1.36,2.05,32.34
-0.02,0.4,0.89,-1.16,0.32,1.56,32.39
-0.03,0.41,0.89,-0.87,-1.24,0.79,32.29
-0.04,0.42,0.88,0.38,-0.92,0.85,32.34
-0.06,0.42,0.9,-0.11,-0.44,0.14,32.29
-0.07,0.42,0.9,-0.92,-0.02,0.41,32.39
-0.06,0.41,0.9,-0.76,-0.26,1.63,32.25
-0.05,0.39,0.89,-1.13,-0.27,1.02,32.29
-0.04,0.39,0.9,-1.3,-0.81,-0.14,32.34
-0.05,0.4,0.89,-1.62,-1.88,-0.93,32.34
-0.05,0.41,0.91,-1.18,-2.14,-1.48,32.29
-0.05,0.41,0.89,-1.02,-1.37,-1.62,32.34
-0.04,0.43,0.89,-0.85,-1.04,-1.89,32.44
-0.05,0.42,0.88,-1.33,-0.93,-2.12,32.29
-0.04,0.41,0.9,-1.27,-0.98,-2.72,32.25
-0.05,0.4,0.89,-0.85,-0.95,-3.19,32.39
-0.05,0.4,0.89,-0.66,-0.6,-2.67,32.29
-0.04,0.41,0.88,-0.44,-0.6,-2.27,32.34
-0.04,0.41,0.88,-0.15,-0.98,-2.12,32.29
-0.05,0.42,0.88,0.29,-1.28,-1.4,32.39
-0.04,0.41,0.89,0.47,-1.37,-1.27,32.34
-0.04,0.42,0.88,1.18,-0.93,-0.7,32.29
-0.03,0.4,0.88,2.27,-0.35,0.43,32.25
-0.04,0.4,0.89,2.66,0.17,1.02,32.34
-0.03,0.41,0.89,3.21,0.12,1.47,32.39
-0.03,0.4,0.89,2.47,-0.75,0.84,32.34
-0.04,0.41,0.89,4.18,-0.03,1.76,32.25
-0.04,0.41,0.89,3.91,-0.12,2.89,32.2
-0.04,0.41,0.88,4.47,0.03,4.49,32.29
-0.03,0.42,0.89,4.35,0.61,4.79,32.29
-0.04,0.42,0.88,3.68,1.53,4.26,32.39
-0.05,0.42,0.89,3.27,1.89,4.41,32.25
-0.04,0.4,0.9,2.6,1.53,4.23,32.39
-0.05,0.41,0.9,2.64,1.59,4.02,32.29
-0.05,0.42,0.89,2.66,1.02,3.92,32.34
-0.04,0.43,0.88,2.5,0.76,4.02,32.39
-0.04,0.44,0.89,1.95,0.6,3.4,32.34
-0.04,0.43,0.88,1.45,0.41,2.12,32.34
-0.03,0.43,0.88,1.62,0.66,1.54,32.39
-0.04,0.41,0.87,1.74,1.6,1.74,32.39
-0.03,0.42,0.88,1.15,1.79,1.71,32.34
-0.03,0.41,0.89,0.96,1.28,1.31,32.29
-0.03,0.41,0.88,1.05,1.31,1.56,32.34
-0.03,0.41,0.88,1.16,0.9,1.51,32.29
-0.02,0.42,0.89,1.19,0.9,1.28,32.29
-0.03,0.42,0.89,1.74,1.05,0.66,32.34
-0.03,0.42,0.89,2.38,1.44,1.05,32.29
-0.03,0.43,0.88,2.6,1.88,2.06,32.39
-0.04,0.43,0.88,2.27,1.59,2.81,32.25
-0.03,0.42,0.9,2.21,1.76,2.89,32.39
-0.04,0.41,0.89,3.3,2.4,2.67,32.39
-0.04,0.42,0.88,3.45,2.6,2.9,32.34
-0.04,0.42,0.9,3.02,2.18,2.72,32.39
-0.04,0.41,0.88,2.61,2.56,2.6,32.34
-0.04,0.42,0.88,2.76,1.42,3.15,32.25
-0.04,0.42,0.89,2.58,2.26,3.5,32.29
-0.04,0.43,0.88,3.21,2.99,3.66,32.34
-0.04,0.42,0.89,2.72,2.69,3.34,32.39
-0.04,0.43,0.88,2.34,1.82,2.72,32.39
-0.04,0.42,0.89,2.09,1.54,2.63,32.25
-0.04,0.42,0.89,1.92,1.56,2.37,32.39
-0.05,0.42,0.88,1.95,1.65,2.21,32.29
-0.04,0.42,0.88,2.17,2.23,2.15,32.34
-0.04,0.43,0.89,2.31,2.47,1.21,32.29
-0.05,0.43,0.88,2.32,2.61,0.7,32.34
-0.05,0.43,0.87,1.39,1.65,1.65,32.25
-0.04,0.42,0.88,1.24,0.89,1.82,32.39
-0.03,0.43,0.88,1.42,0.34,1.1,32.25
-0.05,0.44,0.87,1.51,0.2,0.63,32.44
-0.05,0.43,0.89,1.91,0.93,0.84,32.29
-0.06,0.43,0.88,1.02,0.81,1.11,32.44
-0.06,0.43,0.88,0.26,1.65,2.47,32.29
-0.05,0.42,0.88,0.38,2.0,3.51,32.39
-0.04,0.41,0.88,-0.09,1.3,3.33,32.34
-0.03,0.41,0.88,-0.14,0.32,1.95,32.29
-0.04,0.42,0.88,-0.02,-0.81,1.59,32.29
-0.04,0.43,0.88,0.29,-0.5,2.23,32.34
-0.03,0.44,0.88,0.67,0.49,2.43,32.29
-0.04,0.44,0.88,0.95,1.36,2.41,32.25
-0.04,0.43,0.87,0.85,1.3,2.75,32.34
-0.04,0.42,0.88,1.02,0.66,2.72,32.39
-0.03,0.42,0.88,1.44,0.82,2.5,32.34
-0.04,0.43,0.88,1.56,1.01,1.98,32.29
-0.04,0.43,0.88,1.3,0.44,1.91,32.29
-0.04,0.43,0.88,0.98,-0.05,2.15,32.34
-0.04,0.43,0.88,1.08,-0.17,2.34,32.2
-0.05,0.43,0.88,1.34,0.09,3.04,32.29
-0.04,0.42,0.89,1.36,0.2,2.96,32.34
-0.04,0.43,0.89,1.39,0.29,2.55,32.29
-0.04,0.43,0.89,1.77,0.81,2.53,32.34
-0.04,0.43,0.89,2.05,1.02,2.31,32.34
-0.03,0.42,0.89,0.87,0.18,1.5,32.29
-0.05,0.43,0.89,1.74,0.06,1.24,32.25
-0.06,0.43,0.89,1.02,-0.58,0.85,32.34
-0.06,0.44,0.89,1.24,-0.43,1.25,32.29
-0.05,0.44,0.88,1.74,0.02,2.18,32.34
-0.05,0.43,0.88,0.56,0.55,2.29,32.29
-0.05,0.42,0.87,-0.46,-0.4,1.83,32.29
-0.05,0.42,0.88,-0.9,-0.81,1.76,32.34
-0.04,0.42,0.87,0.03,-0.63,2.03,32.39
-0.04,0.43,0.87,1.13,-0.47,2.37,32.34
-0.02,0.43,0.86,1.15,-0.61,2.53,32.34
-0.03,0.44,0.87,1.11,-0.87,2.43,32.29
-0.03,0.43,0.87,0.89,-0.21,2.53,32.34
-0.02,0.42,0.87,1.11,-0.23,2.63,32.34
-0.03,0.42,0.88,1.57,-0.05,2.89,32.29
-0.02,0.43,0.87,1.15,-0.75,2.85,32.39
-0.03,0.43,0.88,1.25,-0.6,3.18,32.29
-0.03,0.44,0.88,1.27,-1.31,3.08,32.29
-0.03,0.43,0.89,1.05,-1.85,3.13,32.25
-0.03,0.43,0.89,0.93,-0.46,3.27,32.39
-0.03,0.43,0.89,0.93,0.55,3.3,32.29
-0.03,0.42,0.89,0.81,0.37,3.02,32.34
-0.03,0.43,0.89,0.41,1.08,2.92,32.39
-0.03,0.43,0.88,0.56,1.15,2.6,32.25
-0.03,0.43,0.89,0.44,1.51,2.12,32.34
-0.04,0.43,0.88,0.6,1.16,1.27,32.2
-0.04,0.44,0.88,0.84,0.87,0.96,32.39
-0.03,0.44,0.88,1.18,0.05,0.43,32.34
-0.04,0.45,0.88,1.3,-0.58,-0.05,32.29
-0.03,0.45,0.87,1.36,-0.76,0.0,32.25
-0.03,0.44,0.87,1.33,-0.64,0.56,32.39
-0.02,0.44,0.87,1.91,-2.06,0.79,32.39
-0.02,0.43,0.87,1.77,-0.5,0.82,32.34
-0.02,0.43,0.88,1.94,-0.02,0.96,32.39
-0.02,0.42,0.89,2.03,-0.21,1.76,32.2
-0.02,0.42,0.88,2.34,-0.27,2.56,32.34
-0.02,0.43,0.87,3.08,0.67,3.31,32.29
-0.03,0.43,0.88,3.6,2.03,3.83,32.39
-0.04,0.43,0.88,3.66,3.07,4.29,32.34
-0.05,0.43,0.88,2.73,2.52,4.43,32.39
-0.03,0.42,0.88,2.06,1.18,4.38,32.34
-0.03,0.43,0.88,3.07,0.37,4.4,32.25
-0.04,0.46,0.87,1.56,1.21,3.65,32.39
-0.04,0.45,0.88,1.83,1.69,3.05,32.25
-0.05,0.46,0.88,1.15,1.83,2.31,32.34
-0.05,0.46,0.86,0.15,0.87,2.44,32.29
-0.03,0.44,0.87,0.29,0.63,2.7,32.44
-0.02,0.43,0.88,-0.02,0.75,1.83,32.39
-0.02,0.43,0.88,-0.21,0.35,0.38,32.29
-0.02,0.43,0.88,-0.47,-0.05,0.15,32.34
-0.02,0.44,0.88,0.37,-2.96,-0.82,32.29
-0.02,0.45,0.87,-0.24,-1.8,-1.05,32.29
-0.02,0.45,0.88,0.08,0.27,-0.06,32.34
-0.03,0.44,0.87,0.09,0.55,1.08,32.11
-0.02,0.43,0.88,0.31,0.06,1.25,32.34
-0.02,0.42,0.88,0.34,0.09,0.87,32.25
-0.03,0.42,0.89,0.66,1.04,0.24,32.29
-0.03,0.42,0.88,0.52,1.04,0.4,32.34
-0.04,0.43,0.88,0.35,0.95,1.07,32.34
-0.05,0.44,0.88,-0.18,0.78,1.31,32.29
-0.04,0.45,0.89,-0.41,0.98,1.11,32.25
-0.04,0.44,0.88,-0.11,0.99,1.11,32.29
-0.03,0.45,0.88,0.24,0.73,1.36,32.29
-0.03,0.45,0.87,0.18,0.29,1.11,32.34
-0.03,0.44,0.88,-0.03,0.2,0.9,32.29
-0.02,0.44,0.88,0.24,0.75,0.7,32.34
-0.01,0.43,0.87,-0.12,-0.02,0.17,32.34
-0.02,0.44,0.87,1.08,0.03,-0.09,32.29
-0.03,0.44,0.87,0.84,-0.38,0.32,32.25
-0.02,0.44,0.87,1.19,-0.24,1.51,32.25
-0.02,0.44,0.86,1.65,1.1,2.47,32.29
-0.02,0.43,0.87,1.24,2.35,2.78,32.39
-0.03,0.43,0.88,0.93,2.23,2.61,32.39
-0.03,0.42,0.88,0.67,1.15,2.26,32.39
-0.04,0.42,0.88,2.23,0.69,1.66,32.34
-0.03,0.45,0.86,3.47,1.91,2.2,32.39
-0.03,0.45,0.87,2.79,1.1,2.17,32.39
-0.03,0.44,0.87,2.46,2.05,2.17,32.34
-0.02,0.43,0.88,2.63,2.7,2.15,32.29
-0.03,0.43,0.88,3.47,1.82,0.55,32.25
-0.04,0.43,0.88,4.58,2.21,-0.12,32.25
-0.03,0.43,0.86,5.92,1.56,-0.75,32.39
-0.03,0.44,0.89,4.67,0.44,-0.9,32.29
-0.03,0.44,0.89,2.37,0.29,-1.18,32.34
-0.03,0.45,0.87,1.51,1.13,-1.15,32.29
-0.03,0.45,0.87,2.32,-0.14,-0.43,32.25
-0.04,0.45,0.87,1.5,0.76,1.02,32.39
-0.01,0.44,0.89,0.37,1.3,2.66,32.29
-0.02,0.44,0.87,-0.5,2.11,2.23,32.44
-0.03,0.44,0.86,2.09,0.95,1.33,32.39
-0.02,0.44,0.88,1.86,1.97,1.94,32.39
-0.02,0.44,0.89,1.27,0.61,0.79,32.34
-0.03,0.44,0.89,0.99,-0.46,-0.78,32.29
-0.04,0.44,0.88,0.66,-1.88,-2.09,32.39
-0.05,0.45,0.87,0.53,-2.72,-2.82,32.34
-0.04,0.45,0.88,-0.06,-2.32,-2.17,32.39
-0.04,0.44,0.87,1.28,-0.9,-0.24,32.44
-0.01,0.43,0.86,3.11,1.76,2.79,32.29
-0.03,0.45,0.85,5.92,1.85,2.64,32.2
-0.03,0.44,0.86,8.06,1.86,2.05,32.25
-0.02,0.44,0.87,11.05,0.47,0.75,32.29
-0.02,0.45,0.85,14.23,2.08,0.84,32.29
-0.0,0.44,0.86,16.21,1.11,0.87,32.25
-0.01,0.45,0.88,15.62,2.49,1.22,32.29
-0.01,0.45,0.88,15.33,3.59,2.15,32.39
-0.02,0.46,0.87,14.96,4.5,2.64,32.25
-0.02,0.48,0.88,16.95,4.11,4.58,32.39
-0.03,0.47,0.87,16.6,2.93,4.99,32.44
-0.04,0.46,0.84,17.1,2.81,6.53,32.15
-0.06,0.48,0.83,17.22,1.4,6.53,32.39
-0.06,0.51,0.84,15.91,-3.13,2.99,32.25
-0.06,0.51,0.84,16.55,-8.15,1.24,32.39
-0.09,0.51,0.83,15.44,-12.92,-2.78,32.29
-0.03,0.51,0.82,17.24,-12.66,-2.46,32.44
0.01,0.47,0.84,18.35,-8.98,0.21,32.29
-0.03,0.47,0.85,18.76,-6.96,-1.56,32.29
-0.04,0.42,0.84,21.08,-3.66,-1.02,32.25
-0.03,0.42,0.85,23.69,-1.45,2.81,32.29
0.01,0.4,0.86,23.1,-1.88,8.69,32.39
0.05,0.43,0.83,25.08,-2.98,13.3,32.34
0.06,0.47,0.84,24.85,-8.38,14.75,32.29
0.04,0.5,0.88,22.6,-14.29,14.11,32.25
0.02,0.53,0.85,24.46,-13.73,17.8,32.34
-0.01,0.53,0.83,23.37,-7.74,25.63,32.29
0.05,0.51,0.8,34.46,0.32,42.64,32.34
0.09,0.49,0.8,49.98,11.21,56.6,32.25
0.11,0.49,0.84,56.9,12.31,62.73,32.29
0.15,0.51,0.86,54.79,19.48,67.39,32.39
0.07,0.53,0.83,55.53,11.36,67.1,32.29
-0.03,0.62,0.8,47.37,-3.53,54.73,32.39
-0.06,0.57,0.8,49.77,-3.79,50.0,32.34
-0.01,0.56,0.74,59.39,13.02,57.45,32.39
0.06,0.59,0.88,65.62,21.69,59.36,32.29
0.03,0.63,0.79,55.16,16.52,51.91,32.25
-0.0,0.62,0.83,48.66,2.49,40.64,32.2
-0.01,0.6,0.79,40.17,-3.98,34.18,32.34
0.01,0.63,0.79,36.9,-5.44,30.12,32.25
0.01,0.64,0.78,33.22,-1.95,26.7,32.39
-0.01,0.66,0.82,22.61,0.11,17.4,32.29
-0.06,0.65,0.8,12.17,-2.52,8.15,32.34
-0.12,0.66,0.8,-2.05,-2.46,-7.28,32.29
-0.09,0.63,0.81,-8.85,-2.29,-16.55,32.34
-0.03,0.62,0.8,-15.53,2.21,-21.4,32.34
0.0,0.62,0.79,-23.39,2.67,-27.16,32.39
-0.0,0.64,0.78,-30.44,-1.39,-36.76,32.34
0.0,0.65,0.8,-40.43,-8.35,-47.25,32.29
0.0,0.67,0.87,-59.44,-19.76,-57.1,32.39
0.03,0.63,0.79,-61.51,-17.5,-58.0,32.34
0.05,0.61,0.83,-71.11,-19.21,-61.34,32.29
0.11,0.6,0.79,-60.78,-5.98,-53.73,32.39
0.19,0.53,0.85,-53.11,6.43,-44.93,32.34
0.14,0.55,0.81,-44.82,8.72,-34.64,32.29
0.13,0.54,0.78,-37.16,11.69,-25.45,32.39
0.1,0.52,0.82,-30.6,10.7,-19.04,32.34
0.02,0.5,0.81,-26.12,7.54,-17.31,32.29
-0.02,0.49,0.83,-21.94,3.54,-16.38,32.34
-0.07,0.53,0.81,-23.57,1.5,-18.99,32.34
-0.08,0.54,0.82,-30.21,0.96,-22.49,32.39
-0.07,0.54,0.82,-31.24,0.14,-24.75,32.34
-0.04,0.51,0.82,-28.29,-0.26,-22.76,32.34
-0.01,0.49,0.83,-24.58,-2.21,-18.21,32.39
0.01,0.5,0.82,-23.18,-3.28,-13.45,32.34
0.01,0.49,0.82,-24.29,-4.73,-10.73,32.39
0.01,0.49,0.82,-25.21,-5.73,-9.04,32.29
0.01,0.5,0.84,-23.62,-5.15,-7.91,32.34
0.01,0.48,0.85,-19.05,-2.21,-6.49,32.39
0.02,0.49,0.84,-15.77,2.08,-4.23,32.39
0.01,0.49,0.85,-14.58,1.07,-5.15,32.34
0.02,0.5,0.83,-14.72,-0.27,-6.52,32.29
0.01,0.49,0.85,-14.38,-2.23,-7.5,32.34
-0.01,0.5,0.85,-14.55,-3.48,-7.85,32.34
-0.04,0.48,0.85,-13.69,-4.69,-7.88,32.39
-0.03,0.47,0.84,-13.65,-3.66,-6.27,32.29
-0.01,0.46,0.83,-14.27,-1.18,-3.98,32.25
-0.01,0.47,0.85,-14.38,1.02,-2.08,32.39
-0.0,0.47,0.87,-12.9,0.99,-2.41,32.34
-0.0,0.46,0.86,-10.03,-1.13,-3.95,32.39
-0.01,0.47,0.86,-9.04,-1.8,-4.05,32.2
-0.0,0.47,0.86,-8.52,-0.89,-3.33,32.34
0.0,0.47,0.86,-8.15,0.53,-1.74,32.39
-0.01,0.47,0.86,-7.8,0.61,-0.81,32.39
-0.01,0.47,0.86,-7.91,0.9,-1.07,32.34
-0.02,0.47,0.88,-7.48,0.05,-2.31,32.48
-0.02,0.46,0.87,-7.68,-0.15,-3.27,32.29
-0.02,0.45,0.86,-6.9,-0.05,-3.1,32.34
-0.01,0.45,0.86,-6.43,1.01,-1.68,32.29
-0.01,0.46,0.85,-6.02,1.48,-0.63,32.25
-0.0,0.45,0.86,-5.45,0.44,-0.34,32.34
0.01,0.45,0.86,-5.3,0.46,-0.31,32.39
-0.01,0.46,0.87,-4.06,0.67,0.09,32.34
-0.01,0.46,0.86,-1.89,1.54,0.55,32.29
-0.01,0.46,0.87,-1.94,1.91,0.82,32.39
-0.01,0.45,0.88,-3.37,0.96,0.26,32.25
-0.02,0.48,0.86,-4.95,3.18,0.99,32.39
-0.02,0.45,0.88,-3.47,0.63,0.08,32.29
-0.03,0.45,0.86,-2.47,0.09,0.79,32.44
-0.01,0.45,0.86,-1.36,0.7,1.66,32.39
-0.03,0.46,0.87,-1.5,0.32,1.85,32.44
-0.03,0.47,0.87,-3.6,0.21,2.26,32.34
-0.01,0.45,0.87,-4.03,0.98,1.82,32.29
-0.01,0.44,0.88,-4.34,2.37,1.22,32.25
-0.0,0.43,0.87,-2.9,2.53,2.47,32.29
-0.01,0.43,0.88,-1.11,0.61,2.96,32.29
-0.01,0.45,0.88,-0.49,-0.06,2.34,32.34
-0.01,0.47,0.88,-0.6,0.6,1.77,32.39
-0.01,0.47,0.87,-0.58,1.24,2.2,32.39
-0.0,0.46,0.87,-0.81,1.89,2.76,32.34
-0.0,0.45,0.88,-1.27,2.27,2.03,32.29
-0.01,0.44,0.87,-1.73,1.63,0.11,32.34
-0.02,0.43,0.87,-1.22,0.95,-1.25,32.25
-0.02,0.44,0.87,-0.63,0.92,-0.55,32.29
-0.02,0.45,0.88,-1.44,1.22,0.38,32.34
-0.02,0.45,0.87,-1.39,1.53,0.82,32.34
-0.02,0.45,0.87,-1.28,1.5,0.67,32.29
-0.02,0.45,0.88,-0.81,1.5,1.27,32.34
-0.02,0.45,0.88,-0.26,2.27,2.21,32.39
-0.0,0.45,0.87,-0.82,2.96,2.79,32.39
-0.0,0.44,0.87,-1.13,2.49,2.98,32.34
-0.0,0.44,0.87,-0.43,2.66,2.89,32.29
-0.01,0.44,0.87,-0.05,2.23,2.67,32.29
-0.01,0.45,0.89,0.24,2.27,2.56,32.44
-0.02,0.45,0.88,0.98,3.73,2.82,32.29
-0.03,0.45,0.89,-0.14,2.98,2.89,32.34
-0.02,0.45,0.88,-1.04,2.9,2.61,32.34
-0.02,0.44,0.87,-2.08,3.33,2.14,32.39
-0.03,0.43,0.88,-2.44,2.85,2.09,32.34
-0.02,0.44,0.88,-2.05,2.32,1.94,32.34
-0.02,0.45,0.88,-0.87,2.56,1.11,32.29
-0.01,0.45,0.88,-0.37,2.55,-0.14,32.34
-0.01,0.45,0.88,0.15,1.65,-1.62,32.39
-0.01,0.45,0.88,-0.67,1.21,-3.66,32.29
-0.03,0.44,0.87,-0.27,1.74,-3.48,32.44
-0.02,0.44,0.87,0.12,1.33,-2.92,32.29
-0.02,0.44,0.86,0.17,1.76,-1.4,32.29
-0.02,0.44,0.87,-1.3,2.49,0.11,32.34
-0.02,0.43,0.87,-1.8,3.05,1.54,32.29
-0.02,0.44,0.87,-1.47,2.06,1.39,32.34
-0.03,0.44,0.88,-0.66,1.79,0.38,32.34
-0.02,0.44,0.87,-0.43,2.49,0.08,32.29
-0.03,0.45,0.87,-1.15,2.82,0.09,32.39
-0.03,0.44,0.87,-1.97,2.17,-0.69,32.34
-0.03,0.44,0.87,-2.38,1.48,-1.68,32.29
-0.03,0.45,0.87,-1.8,1.37,-2.2,32.34
-0.02,0.44,0.87,-1.4,1.3,-1.88,32.39
-0.02,0.44,0.88,-1.28,1.27,-1.44,32.29
-0.02,0.45,0.88,-1.39,1.18,-1.48,32.34
-0.03,0.44,0.87,-0.17,1.54,-0.21,32.39
-0.01,0.44,0.88,0.6,2.5,0.47,32.39
-0.02,0.44,0.89,0.95,1.88,-0.12,32.25
-0.03,0.44,0.87,0.9,1.77,0.06,32.2
-0.03,0.44,0.87,0.56,1.98,0.63,32.29
-0.03,0.44,0.88,0.29,2.41,1.65,32.34
-0.03,0.44,0.88,-0.06,2.73,2.02,32.39
-0.02,0.44,0.87,0.43,2.26,1.24,32.34
-0.02,0.44,0.88,1.01,2.26,0.66,32.34
-0.03,0.44,0.87,1.19,1.91,0.96,32.29
-0.02,0.44,0.87,0.37,2.32,1.71,32.34
-0.03,0.45,0.87,-0.18,2.37,1.91,32.25
-0.03,0.44,0.88,-0.06,2.09,1.6,32.29
-0.03,0.44,0.88,0.5,2.29,1.62,32.25
-0.03,0.44,0.88,0.96,2.09,1.02,32.39
-0.03,0.44,0.87,0.53,1.89,0.43,32.29
-0.03,0.44,0.87,-0.02,1.48,0.34,32.34
-0.03,0.44,0.87,-0.37,1.3,0.52,32.29
-0.02,0.44,0.88,-0.38,1.66,1.16,32.29
-0.03,0.44,0.88,-0.37,2.14,2.02,32.25
-0.02,0.45,0.88,-0.17,2.29,1.71,32.29
-0.02,0.44,0.87,0.24,2.63,0.79,32.34
-0.02,0.44,0.87,0.72,1.95,0.34,32.25
-0.03,0.44,0.87,0.67,1.42,0.24,32.39
-0.04,0.44,0.87,0.27,1.36,0.56,32.34
-0.02,0.44,0.88,0.38,1.63,0.93,32.34
-0.03,0.44,0.88,0.37,2.08,1.6,32.29
-0.03,0.44,0.88,0.44,2.41,2.31,32.29
-0.02,0.44,0.88,0.34,2.32,2.0,32.39
-0.03,0.44,0.87,0.67,2.02,1.3,32.29
-0.03,0.44,0.88,1.11,1.4,0.98,32.25
-0.03,0.43,0.87,1.31,1.89,1.65,32.29
-0.03,0.44,0.88,1.3,2.69,1.97,32.39
-0.03,0.44,0.88,1.3,3.18,2.0,32.34
-0.03,0.44,0.87,0.75,2.11,2.03,32.29
-0.02,0.44,0.87,1.37,1.48,2.05,32.34
-0.03,0.43,0.88,1.56,0.84,1.51,32.34
-0.04,0.44,0.88,0.63,-0.06,1.39,32.29
-0.04,0.45,0.87,1.85,0.7,1.73,32.39
-0.05,0.46,0.88,1.34,1.47,2.38,32.34
-0.05,0.45,0.87,0.87,2.67,3.95,32.29
-0.03,0.43,0.88,0.29,2.7,4.32,32.34
-0.02,0.42,0.88,0.12,2.75,2.99,32.39
-0.02,0.41,0.88,-0.09,1.66,2.46,32.39
-0.02,0.43,0.88,1.07,0.12,2.52,32.34
-0.02,0.46,0.88,2.18,0.08,1.76,32.39
-0.02,0.47,0.87,2.34,1.33,1.6,32.34
-0.03,0.46,0.87,1.21,1.62,2.05,32.44
-0.03,0.44,0.87,0.99,1.62,2.69,32.39
-0.02,0.43,0.87,1.48,1.82,2.92,32.29
-0.01,0.44,0.87,2.44,1.8,2.64,32.44
-0.02,0.44,0.87,2.64,1.4,2.02,32.39
-0.03,0.44,0.88,2.26,1.1,2.18,32.25
-0.04,0.44,0.88,1.95,1.13,2.08,32.29
-0.03,0.45,0.87,2.08,1.27,2.24,32.39
-0.04,0.45,0.86,2.29,1.39,2.7,32.34
-0.03,0.46,0.88,2.67,1.33,3.25,32.2
-0.03,0.45,0.87,2.79,1.37,3.08,32.29
-0.03,0.45,0.87,2.21,1.47,2.18,32.25
-0.04,0.45,0.87,1.77,1.3,1.54,32.29
-0.03,0.45,0.87,1.76,1.22,1.65,32.39
-0.02,0.44,0.88,2.12,1.08,1.69,32.34
-0.02,0.45,0.87,1.62,1.05,1.24,32.29
-0.03,0.45,0.87,2.35,0.93,1.24,32.34
-0.04,0.46,0.87,0.9,0.47,1.4,32.34
-0.04,0.45,0.88,0.98,1.02,1.76,32.39
-0.03,0.45,0.86,0.92,2.18,1.74,32.34
-0.04,0.44,0.87,0.15,2.02,1.19,32.39
-0.03,0.44,0.87,-0.61,1.3,1.47,32.29
-0.03,0.45,0.87,-0.23,1.21,1.68,32.44
-0.03,0.45,0.88,0.41,1.08,1.07,32.29
-0.03,0.46,0.88,0.79,0.73,0.7,32.29
-0.02,0.45,0.87,1.04,0.26,0.55,32.34
-0.03,0.45,0.87,0.82,0.37,0.98,32.29
-0.04,0.44,0.87,0.49,1.13,1.27,32.34
-0.03,0.45,0.88,0.52,1.97,1.76,32.34
-0.03,0.44,0.87,0.67,2.63,2.02,32.29
-0.03,0.44,0.87,0.78,1.82,1.48,32.34
-0.04,0.44,0.87,0.64,0.92,0.95,32.34
-0.03,0.45,0.87,0.76,0.78,0.73,32.29
-0.03,0.45,0.87,0.58,1.3,0.84,32.34
-0.03,0.45,0.87,0.9,1.4,1.27,32.29
-0.03,0.45,0.88,0.69,1.63,1.39,32.29
-0.03,0.45,0.87,0.5,1.59,1.42,32.34
-0.03,0.44,0.87,0.58,1.3,1.42,32.39
-0.03,0.45,0.87,0.92,0.85,1.07,32.34
-0.03,0.45,0.87,1.08,0.58,1.01,32.34
-0.03,0.45,0.87,1.08,0.18,0.92,32.39
-0.03,0.45,0.87,1.15,0.66,1.1,32.34
-0.03,0.44,0.87,1.01,0.98,1.19,32.34
-0.03,0.45,0.87,0.89,0.85,1.25,32.39
-0.03,0.45,0.87,0.93,0.21,1.16,32.34
-0.04,0.45,0.88,0.72,0.02,1.11,32.29
-0.03,0.45,0.87,0.18,0.37,1.77,32.39
-0.03,0.45,0.86,0.09,0.67,1.97,32.34
-0.03,0.45,0.87,0.34,0.92,2.17,32.29
-0.02,0.45,0.87,0.35,0.29,2.32,32.39
-0.02,0.44,0.87,0.14,0.4,1.85,32.34
-0.03,0.45,0.87,0.24,0.37,1.79,32.29
-0.03,0.45,0.87,0.15,0.93,1.86,32.25
-0.03,0.46,0.86,0.11,1.16,1.6,32.34
-0.03,0.45,0.87,0.12,0.73,1.3,32.39
-0.03,0.45,0.86,-0.05,0.0,1.07,32.34
-0.03,0.45,0.87,-0.24,0.11,1.02,32.34
-0.03,0.46,0.88,-0.6,0.14,0.92,32.29
-0.02,0.45,0.87,-0.49,0.47,0.61,32.25
-0.02,0.44,0.87,-0.08,0.26,0.24,32.29
-0.03,0.45,0.87,-0.38,0.21,0.0,32.39
-0.03,0.45,0.87,-0.7,-0.14,-0.23,32.25
-0.03,0.45,0.89,-0.64,-0.35,0.06,32.29
-0.03,0.44,0.86,-0.44,-0.12,0.2,32.39
-0.03,0.45,0.86,-0.03,0.12,0.55,32.34
-0.03,0.44,0.87,0.08,0.81,0.85,32.29
-0.03,0.45,0.87,-0.41,0.96,1.73,32.34
-0.02,0.45,0.88,-0.56,0.5,1.59,32.25
-0.02,0.44,0.87,0.03,0.31,1.18,32.39
-0.02,0.45,0.87,0.76,0.44,0.84,32.48
-0.03,0.45,0.88,0.84,0.61,0.56,32.29
-0.04,0.45,0.88,0.58,1.1,0.95,32.29
-0.03,0.45,0.87,-0.56,0.82,1.33,32.34
-0.03,0.44,0.87,-0.26,0.18,1.59,32.29
-0.03,0.45,0.87,0.14,-0.11,1.33,32.29
-0.03,0.46,0.87,-0.06,-0.6,0.95,32.34
-0.05,0.47,0.87,0.49,-0.43,0.43,32.29
-0.05,0.46,0.87,-0.53,0.02,0.61,32.34
-0.05,0.44,0.87,-1.24,0.78,2.47,32.34
-0.03,0.44,0.88,-0.85,1.07,3.54,32.39
-0.02,0.42,0.87,-0.63,1.3,2.55,32.39
-0.02,0.43,0.89,-0.82,0.32,1.08,32.34
-0.02,0.44,0.87,-0.55,-1.11,0.6,32.39
-0.02,0.46,0.86,0.29,-1.07,0.61,32.34
-0.01,0.46,0.87,0.47,0.02,0.58,32.29
-0.02,0.47,0.87,0.05,0.93,0.84,32.39
-0.03,0.45,0.87,-1.05,0.64,1.05,32.25
-0.02,0.44,0.87,-1.05,0.46,0.87,32.29
-0.02,0.44,0.89,-0.05,0.41,0.11,32.29
-0.02,0.44,0.87,0.43,-0.12,-0.6,32.34
-0.03,0.44,0.87,-0.02,-0.49,-0.92,32.39
-0.03,0.44,0.86,-0.29,-0.6,-0.06,32.39
-0.03,0.45,0.87,-0.26,0.0,0.56,32.34
-0.03,0.45,0.88,-0.02,-0.17,0.55,32.29
-0.03,0.45,0.88,0.76,-0.14,0.2,32.44
-0.04,0.44,0.87,1.13,0.43,1.11,32.44
-0.02,0.44,0.88,0.61,0.87,2.09,32.29
-0.03,0.44,0.87,0.31,1.15,2.27,32.34
-0.02,0.44,0.87,0.55,1.28,1.92,32.29
-0.02,0.44,0.87,0.82,0.46,1.3,32.39
-0.02,0.45,0.87,0.46,-0.26,0.75,32.34
-0.02,0.45,0.88,1.08,-0.26,0.63,32.39
-0.05,0.45,0.88,-0.18,-0.2,0.69,32.29
-0.04,0.45,0.87,0.17,0.46,1.77,32.25
-0.03,0.44,0.87,-0.35,1.73,1.68,32.29
-0.03,0.44,0.88,-1.3,1.1,0.73,32.25
-0.03,0.43,0.88,-2.17,-0.15,0.61,32.34
-0.02,0.44,0.88,-0.89,0.09,0.23,32.39
-0.02,0.45,0.87,-0.2,0.67,0.0,32.34
-0.02,0.46,0.87,-0.35,0.44,0.08,32.29
-0.03,0.45,0.87,-1.21,-0.21,-0.03,32.29
-0.03,0.45,0.87,-1.47,-0.21,-0.23,32.34
-0.03,0.44,0.88,-0.76,0.37,0.24,32.29
-0.03,0.44,0.87,0.08,0.75,0.5,32.39
-0.02,0.44,0.87,-0.6,0.73,0.34,32.34
-0.03,0.44,0.88,-0.63,0.34,-0.02,32.29
-0.03,0.44,0.88,-0.44,-0.02,0.06,32.34
-0.03,0.45,0.87,-0.23,0.09,0.18,32.25
-0.03,0.44,0.87,-0.23,0.15,0.46,32.29
-0.03,0.44,0.87,-0.47,0.44,0.7,32.34
-0.02,0.44,0.87,-0.32,0.41,1.31,32.25
-0.02,0.45,0.87,-0.24,0.44,1.07,32.39
-0.03,0.45,0.88,-0.03,0.15,0.84,32.34
-0.03,0.44,0.87,0.14,0.35,0.87,32.39
-0.03,0.44,0.87,0.56,0.4,1.08,32.29
-0.03,0.44,0.88,0.17,0.08,1.13,32.34
-0.03,0.44,0.88,0.14,-0.17,0.81,32.39
-0.02,0.45,0.88,0.52,-0.29,0.95,32.29
-0.03,0.45,0.88,0.46,-0.2,0.93,32.25
-0.03,0.45,0.87,0.53,0.03,0.9,32.29
-0.03,0.44,0.88,0.53,0.15,1.13,32.34
-0.03,0.45,0.88,0.63,0.24,1.36,32.34
-0.02,0.44,0.87,0.55,0.35,1.4,32.29
-0.03,0.44,0.87,0.26,0.67,1.53,32.25
-0.03,0.44,0.87,0.24,0.79,1.28,32.29
-0.03,0.44,0.88,0.27,0.52,1.4,32.29
-0.02,0.44,0.87,0.31,0.5,1.65,32.34
-0.02,0.45,0.87,0.37,0.61,1.63,32.39
-0.02,0.45,0.87,0.24,0.9,1.34,32.39
-0.02,0.44,0.86,0.27,0.85,1.44,32.25
-0.03,0.44,0.88,0.02,0.7,1.13,32.29
-0.02,0.44,0.86,0.15,0.32,1.01,32.34
-0.02,0.44,0.87,0.17,0.58,0.58,32.34
-0.02,0.45,0.88,0.03,0.4,0.64,32.29
-0.03,0.45,0.87,0.05,0.26,0.37,32.34
-0.02,0.45,0.87,0.17,0.15,0.49,32.34
-0.03,0.45,0.88,0.0,0.34,0.35,32.29
-0.03,0.45,0.88,-0.05,0.38,0.05,32.34
-0.03,0.44,0.87,-0.11,0.49,0.4,32.29
-0.02,0.44,0.88,-0.02,0.7,0.47,32.39
-0.02,0.44,0.88,-0.15,0.79,0.72,32.34
-0.02,0.44,0.88,0.29,0.66,0.76,32.29
-0.02,0.44,0.87,0.17,0.61,0.96,32.25
-0.03,0.44,0.87,0.15,0.31,1.16,32.34
-0.03,0.44,0.88,0.23,0.12,1.18,32.2
