acc_x,acc_y,acc_z,gyro_x,gyro_y,gyro_z,temp
0.03,0.43,0.88,-0.09,-0.21,0.24,32.48
0.03,0.42,0.88,0.18,0.02,0.61,32.53
0.04,0.43,0.88,-0.17,-0.05,0.67,32.58
0.04,0.43,0.88,0.34,0.02,0.67,32.48
0.02,0.42,0.88,0.81,0.11,0.55,32.53
0.03,0.43,0.89,0.98,0.23,0.98,32.48
0.03,0.43,0.88,0.73,0.49,1.25,32.44
0.03,0.42,0.88,0.14,0.64,1.77,32.53
0.04,0.43,0.88,0.32,0.7,1.82,32.48
0.03,0.43,0.89,0.56,0.4,1.39,32.58
0.03,0.43,0.88,0.76,0.26,1.02,32.53
0.03,0.43,0.88,0.64,0.29,0.69,32.48
0.03,0.43,0.88,0.7,0.5,1.25,32.53
0.03,0.43,0.87,0.78,0.9,1.19,32.58
0.04,0.44,0.88,0.66,0.82,1.13,32.48
0.03,0.44,0.9,0.58,0.52,0.85,32.44
0.03,0.44,0.88,0.87,0.03,0.44,32.39
0.03,0.44,0.88,0.38,0.17,0.75,32.48
0.03,0.43,0.89,0.03,0.43,1.39,32.53
0.03,0.43,0.89,0.2,1.1,2.29,32.48
0.03,0.43,0.89,-0.5,1.4,2.67,32.58
0.03,0.43,0.88,-0.84,1.39,2.75,32.53
0.03,0.43,0.89,-0.69,0.95,2.08,32.48
0.03,0.43,0.89,-0.47,0.6,2.05,32.53
0.03,0.43,0.88,0.12,0.15,1.44,32.53
0.03,0.42,0.89,0.55,0.6,1.01,32.58
0.02,0.43,0.88,0.99,1.3,1.19,32.53
0.02,0.43,0.88,0.17,1.42,1.22,32.58
0.03,0.43,0.89,0.09,0.82,1.66,32.48
0.04,0.43,0.88,0.84,0.09,1.8,32.53
0.04,0.43,0.89,1.51,-0.55,1.6,32.48
0.04,0.44,0.88,2.09,-0.79,1.28,32.48
0.02,0.44,0.88,2.81,-0.93,1.02,32.53
0.0,0.44,0.88,1.1,0.15,1.86,32.48
0.01,0.44,0.88,0.09,0.64,3.18,32.44
0.03,0.42,0.89,0.81,1.63,3.73,32.44
0.04,0.4,0.89,1.42,2.76,3.36,32.48
0.04,0.42,0.88,1.83,2.17,2.44,32.53
0.04,0.43,0.89,1.62,1.1,1.92,32.62
0.04,0.45,0.9,1.07,-1.5,0.35,32.58
0.04,0.45,0.89,1.88,-0.38,0.66,32.53
0.05,0.46,0.88,2.76,1.86,1.66,32.48
0.04,0.45,0.88,1.34,2.34,2.47,32.39
0.04,0.43,0.88,0.5,2.4,2.12,32.53
0.03,0.43,0.88,1.34,2.11,1.54,32.48
0.03,0.42,0.89,2.37,2.89,2.11,32.48
0.02,0.43,0.89,3.01,3.42,4.18,32.53
0.03,0.42,0.88,4.79,7.44,8.0,32.48
0.06,0.43,0.9,8.08,11.76,10.03,32.53
0.06,0.45,0.89,11.1,10.47,8.99,32.62
0.06,0.44,0.89,12.43,7.71,6.93,32.48
0.03,0.45,0.88,11.36,2.27,1.95,32.44
0.01,0.45,0.87,10.66,-0.53,-0.87,32.58
0.0,0.44,0.87,8.34,0.72,-0.2,32.58
0.02,0.43,0.87,8.82,4.7,4.46,32.53
0.04,0.44,0.88,5.51,5.47,4.26,32.39
0.03,0.46,0.88,4.31,1.42,1.74,32.53
0.02,0.46,0.88,3.79,-3.11,-0.15,32.44
0.01,0.47,0.87,3.39,-3.77,-0.43,32.48
0.01,0.47,0.88,1.21,-2.11,-1.71,32.44
0.01,0.45,0.89,-1.5,0.9,-2.87,32.53
0.01,0.43,0.87,-1.82,1.34,-2.63,32.58
0.01,0.43,0.88,-1.8,-0.7,-2.23,32.44
0.02,0.44,0.86,-1.39,-1.85,-1.21,32.48
0.03,0.45,0.88,-1.39,-1.44,-0.4,32.58
0.04,0.46,0.88,-2.11,-0.2,-0.58,32.53
0.03,0.45,0.88,-1.54,0.06,-2.27,32.48
0.03,0.44,0.87,-0.6,0.61,-2.78,32.48
0.03,0.44,0.88,-0.55,0.66,-2.35,32.53
0.03,0.43,0.87,-0.85,0.75,-1.59,32.48
0.03,0.45,0.88,-1.94,1.24,-1.21,32.44
0.03,0.46,0.87,-1.47,0.92,-0.63,32.53
0.01,0.45,0.88,-0.49,0.95,-0.24,32.39
0.03,0.44,0.87,-0.02,1.53,0.03,32.53
0.01,0.44,0.89,-1.48,2.06,-0.67,32.48
0.03,0.45,0.87,-1.95,2.56,0.14,32.58
0.03,0.45,0.87,-1.86,3.01,0.79,32.44
0.05,0.46,0.88,-2.17,3.25,1.07,32.48
0.05,0.43,0.88,-0.14,2.89,1.92,32.39
0.02,0.44,0.87,-0.11,3.45,2.27,32.53
0.03,0.43,0.87,-0.58,4.38,2.87,32.48
0.02,0.44,0.87,-0.58,4.41,3.57,32.44
0.04,0.45,0.87,-0.76,5.01,4.64,32.53
0.02,0.45,0.89,-1.16,3.89,2.14,32.58
0.01,0.44,0.87,0.38,2.43,-0.4,32.53
0.01,0.44,0.87,-0.03,3.07,-0.09,32.48
0.01,0.45,0.88,-1.53,3.74,1.19,32.48
0.03,0.45,0.86,-1.89,4.35,2.44,32.44
0.04,0.47,0.88,-2.95,4.29,3.51,32.48
0.03,0.45,0.88,-1.62,2.31,2.76,32.48
0.02,0.45,0.88,-0.85,1.27,1.3,32.44
0.02,0.44,0.89,-1.28,1.22,1.71,32.48
0.03,0.44,0.87,-2.05,2.2,2.52,32.53
0.02,0.44,0.88,-2.81,3.07,1.22,32.53
0.02,0.43,0.89,-1.53,2.79,1.68,32.48
0.02,0.45,0.88,-1.37,2.58,3.02,32.53
0.03,0.44,0.87,-1.22,2.4,2.92,32.48
0.04,0.43,0.88,-1.83,1.8,2.95,32.58
0.02,0.44,0.87,-3.27,0.58,2.43,32.44
0.02,0.42,0.86,-3.68,0.46,3.59,32.39
0.02,0.44,0.88,-4.23,1.21,4.26,32.48
0.04,0.43,0.88,-3.48,1.04,4.31,32.44
0.03,0.44,0.88,-2.75,0.87,4.18,32.48
0.02,0.44,0.88,-2.85,0.76,4.61,32.53
0.01,0.44,0.89,-4.52,0.5,4.5,32.62
0.02,0.44,0.88,-5.08,0.84,4.08,32.48
0.02,0.44,0.87,-4.02,1.19,4.23,32.53
0.02,0.43,0.89,-2.82,1.02,4.15,32.58
0.03,0.43,0.88,-1.76,0.7,4.52,32.58
0.03,0.44,0.87,-1.36,-0.82,3.77,32.53
0.03,0.44,0.88,-2.64,-1.73,3.31,32.58
0.04,0.44,0.9,-3.53,-2.17,2.9,32.58
0.01,0.44,0.9,-3.47,-2.79,1.82,32.53
0.01,0.43,0.88,-2.11,-0.34,3.07,32.58
0.02,0.42,0.88,-2.21,1.91,4.53,32.53
0.01,0.4,0.89,-3.05,1.94,3.63,32.53
0.02,0.4,0.89,-2.05,3.57,4.4,32.48
0.03,0.41,0.88,-1.76,4.32,4.99,32.53
0.02,0.44,0.87,-1.36,3.92,5.45,32.48
0.04,0.46,0.89,-2.21,3.83,6.41,32.48
0.04,0.46,0.88,-1.86,2.73,5.4,32.53
0.03,0.45,0.9,-2.49,1.83,4.7,32.48
0.02,0.43,0.88,-2.14,0.44,2.43,32.44
0.01,0.41,0.88,-1.56,0.64,1.22,32.44
0.02,0.41,0.89,-1.24,1.34,0.92,32.48
0.04,0.42,0.88,-1.83,2.17,1.08,32.53
0.03,0.43,0.88,-2.15,2.12,1.8,32.53
0.02,0.42,0.89,-2.47,0.81,2.09,32.48
0.02,0.42,0.89,-2.21,0.5,1.95,32.62
0.03,0.43,0.89,-1.44,1.13,1.62,32.48
0.02,0.43,0.89,-1.15,1.89,0.85,32.39
0.01,0.42,0.9,-1.4,2.98,0.99,32.62
0.03,0.42,0.89,-1.21,3.07,1.53,32.58
0.01,0.41,0.9,-2.09,1.63,1.76,32.44
0.0,0.41,0.92,-3.3,1.04,-0.44,32.44
-0.03,0.41,0.93,-4.81,-2.02,-4.37,32.58
-0.05,0.39,0.9,-1.31,-4.67,-4.96,32.53
-0.02,0.42,0.9,-3.83,-2.67,-1.53,32.48
0.03,0.43,0.89,-3.8,-0.76,1.95,32.58
0.06,0.45,0.89,-4.9,1.02,2.43,32.53
0.07,0.43,0.9,-4.37,1.13,0.63,32.48
0.07,0.42,0.88,-3.24,0.26,-1.1,32.58
0.06,0.42,0.88,-2.29,0.64,-1.47,32.44
0.04,0.42,0.88,-1.25,1.51,-1.1,32.48
0.03,0.23,0.74,12.35,2.67,4.61,32.53
0.02,0.41,0.92,0.6,3.88,1.42,32.44
0.03,0.43,0.87,1.13,0.18,1.63,32.48
0.03,0.42,0.88,-0.55,0.7,2.44,32.53
0.03,0.41,0.89,1.85,1.31,2.75,32.48
0.03,0.42,0.89,3.1,1.18,1.4,32.48
0.03,0.41,0.88,2.35,1.95,1.66,32.44
0.02,0.41,0.89,0.56,1.48,2.02,32.48
0.02,0.41,0.89,0.12,1.22,2.09,32.48
0.01,0.42,0.89,1.73,1.24,1.51,32.53
0.0,0.42,0.89,1.97,1.05,1.51,32.39
0.01,0.42,0.89,0.9,1.21,2.9,32.53
0.02,0.42,0.89,0.29,1.63,3.74,32.58
0.02,0.42,0.89,0.73,1.76,3.98,32.48
0.03,0.43,0.89,0.98,1.48,5.25,32.53
0.03,0.43,0.91,-1.04,0.34,5.68,32.58
0.03,0.44,0.92,-4.34,-0.7,6.34,32.53
0.04,0.42,0.91,-5.28,0.61,7.68,32.53
0.03,0.41,0.89,-4.09,3.28,9.39,32.48
0.01,0.41,0.9,-3.11,4.67,10.21,32.44
0.02,0.43,0.89,-3.51,3.95,9.37,32.58
0.01,0.42,0.9,-5.39,3.4,7.07,32.48
0.02,0.42,0.88,-5.77,2.66,4.79,32.62
0.02,0.41,0.89,-5.97,2.12,2.89,32.48
0.02,0.41,0.89,-5.25,1.74,1.6,32.53
0.02,0.4,0.89,-5.4,1.05,0.26,32.53
0.02,0.4,0.88,-5.11,-0.18,-1.24,32.48
-0.03,0.28,0.91,0.63,-7.85,-8.7,32.53
0.05,0.38,0.92,-4.26,-0.37,-2.2,32.39
0.04,0.39,0.9,-1.68,-3.21,-4.72,32.48
0.03,0.39,0.9,-0.43,-1.65,-5.24,32.44
0.03,0.4,0.88,3.42,-2.11,-5.76,32.48
0.03,0.41,0.89,5.39,-1.05,-6.72,32.44
0.02,0.41,0.87,6.29,0.53,-6.87,32.53
0.02,0.41,0.87,6.63,2.47,-6.43,32.58
0.02,0.42,0.88,6.76,3.86,-5.68,32.53
0.0,0.41,0.88,9.28,2.29,-7.53,32.48
0.01,0.41,0.88,11.33,-1.66,-10.12,32.53
0.04,0.33,0.96,1.04,-20.06,-18.2,32.44
0.02,0.43,0.8,14.52,-14.4,-13.3,32.48
0.01,0.4,0.94,11.16,-3.18,-7.3,32.48
0.03,0.45,0.9,10.11,3.54,-2.72,32.48
0.03,0.43,0.91,5.79,6.52,-0.53,32.58
0.03,0.42,0.88,2.96,4.0,-1.71,32.53
0.02,0.43,0.89,4.23,-0.35,-2.63,32.58
0.02,0.43,0.89,6.27,-1.05,-1.89,32.58
0.01,0.44,0.89,5.36,0.58,-0.93,32.53
0.01,0.43,0.9,2.64,1.28,1.74,32.48
0.02,0.41,0.91,1.94,2.99,3.56,32.53
0.03,0.4,0.89,3.34,2.55,2.89,32.44
0.03,0.4,0.87,3.71,1.85,2.0,32.48
0.02,0.41,0.89,3.91,1.85,2.11,32.53
0.03,0.44,0.9,2.35,0.58,1.53,32.48
0.03,0.45,0.87,0.67,1.39,1.15,32.48
0.05,0.45,0.91,0.43,3.79,4.08,32.53
0.03,0.44,0.88,2.46,2.4,2.85,32.48
0.03,0.43,0.88,3.6,-0.84,-1.31,32.53
0.01,0.44,0.88,0.55,-2.58,-2.89,32.53
0.02,0.42,0.88,1.47,-2.38,-2.81,32.48
0.03,0.42,0.89,2.02,-0.7,-1.1,32.53
0.02,0.42,0.89,0.85,-0.98,-2.0,32.48
0.02,0.42,0.89,0.82,-2.67,-2.08,32.58
0.03,0.43,0.89,1.62,-3.74,-2.11,32.53
0.03,0.43,0.88,2.23,-3.34,-2.35,32.48
0.03,0.44,0.89,2.84,-3.68,-1.86,32.53
0.04,0.43,0.89,2.06,-3.66,-2.08,32.44
0.05,0.42,0.89,2.24,-3.71,-2.27,32.58
0.05,0.42,0.88,3.45,-4.78,-2.84,32.53
0.05,0.43,0.89,2.87,-6.27,-4.63,32.48
0.04,0.43,0.9,3.57,-8.61,-6.78,32.53
0.01,0.43,0.88,5.68,-8.58,-7.01,32.53
0.02,0.43,0.86,6.7,-5.15,-2.95,32.48
0.02,0.43,0.86,5.85,-2.17,-0.84,32.48
0.01,0.44,0.87,3.48,0.76,0.34,32.58
0.0,0.43,0.88,0.78,0.76,1.02,32.48
0.01,0.43,0.92,-0.66,0.47,1.08,32.44
0.01,0.44,0.9,1.21,0.24,2.09,32.58
0.02,0.45,0.88,0.08,0.32,2.4,32.48
0.03,0.45,0.89,-0.98,0.81,2.82,32.53
0.0,0.45,0.87,-1.4,-0.69,1.05,32.48
-0.02,0.44,0.88,-2.18,-2.47,-0.79,32.44
0.04,0.43,0.88,-1.02,-0.78,1.69,32.53
0.07,0.43,0.88,0.41,0.92,2.53,32.58
0.04,0.42,0.89,1.16,1.19,1.77,32.58
0.02,0.43,0.88,1.15,-0.31,1.53,32.58
0.02,0.43,0.88,-0.69,-0.32,2.63,32.48
0.02,0.43,0.89,-0.73,1.28,3.47,32.53
0.04,0.42,0.87,-0.11,2.34,2.38,32.58
0.02,0.42,0.88,0.76,0.98,1.13,32.62
0.02,0.43,0.87,1.16,-0.32,0.37,32.53
0.03,0.44,0.88,1.28,0.23,0.99,32.58
0.04,0.44,0.88,0.84,0.81,0.82,32.44
0.04,0.44,0.88,1.21,1.4,0.08,32.39
0.03,0.43,0.87,2.44,0.99,-0.85,32.48
0.04,0.44,0.87,2.7,0.56,-1.36,32.62
0.04,0.43,0.88,2.4,0.34,-1.47,32.48
0.03,0.44,0.89,2.89,0.55,-1.07,32.48
0.02,0.44,0.88,2.92,1.76,-0.7,32.53
0.02,0.44,0.89,2.23,1.82,-0.5,32.58
0.02,0.45,0.89,1.74,1.6,-0.05,32.53
0.03,0.44,0.89,0.53,1.36,0.92,32.53
0.03,0.45,0.89,-0.05,0.99,0.98,32.48
0.03,0.43,0.88,-0.15,1.22,1.08,32.62
0.03,0.43,0.88,-0.02,1.28,1.19,32.48
0.03,0.43,0.88,0.09,1.71,1.05,32.58
0.03,0.43,0.88,0.2,2.43,1.69,32.53
0.03,0.43,0.88,0.82,3.05,2.12,32.48
0.03,0.43,0.88,0.78,3.44,2.7,32.48
0.03,0.44,0.89,0.17,3.18,2.17,32.53
0.02,0.44,0.89,-0.38,2.92,1.88,32.48
0.03,0.44,0.88,-0.12,2.72,1.8,32.44
0.03,0.44,0.89,0.7,3.39,2.4,32.44
0.03,0.43,0.88,0.46,3.34,2.75,32.48
0.03,0.43,0.87,-0.69,2.76,2.46,32.53
0.03,0.43,0.88,-0.06,2.69,2.7,32.48
0.03,0.43,0.88,0.05,2.84,2.64,32.58
0.02,0.44,0.88,-0.29,2.08,2.37,32.53
0.03,0.44,0.87,0.64,1.66,2.26,32.58
0.02,0.44,0.88,0.72,1.94,2.32,32.48
0.02,0.44,0.88,-0.17,2.69,2.78,32.53
0.02,0.44,0.88,-0.72,2.4,3.63,32.48
0.03,0.42,0.89,-0.03,2.81,3.53,32.53
0.02,0.42,0.88,-0.27,3.07,2.4,32.53
0.01,0.42,0.89,-0.67,1.59,1.76,32.48
0.02,0.44,0.88,0.09,1.04,1.86,32.44
0.03,0.45,0.88,0.78,2.21,2.79,32.62
0.04,0.45,0.9,0.47,2.26,2.27,32.58
0.04,0.45,0.88,0.44,1.42,1.39,32.48
0.03,0.45,0.88,0.12,1.01,0.66,32.62
0.02,0.44,0.88,0.2,0.98,-0.08,32.48
0.02,0.43,0.88,0.06,1.69,-0.15,32.53
0.02,0.43,0.88,0.09,2.12,0.79,32.39
0.02,0.43,0.88,-0.37,2.21,1.73,32.48
0.02,0.44,0.88,-0.53,1.66,1.63,32.53
0.02,0.44,0.88,0.09,1.77,1.36,32.58
0.01,0.44,0.88,0.9,2.52,1.39,32.48
0.03,0.44,0.88,0.98,3.5,2.32,32.53
0.02,0.43,0.88,0.53,3.22,2.72,32.48
0.03,0.44,0.89,0.85,2.9,2.69,32.48
0.03,0.43,0.89,1.4,2.6,2.2,32.53
0.03,0.43,0.89,0.85,1.44,0.6,32.58
0.02,0.43,0.88,2.32,1.11,-0.4,32.53
0.02,0.44,0.88,1.47,0.81,0.15,32.53
0.01,0.45,0.89,0.82,1.22,1.54,32.48
0.01,0.44,0.89,-0.21,1.63,1.28,32.53
0.02,0.43,0.88,-0.72,2.08,0.9,32.58
0.01,0.43,0.87,-0.67,1.04,0.12,32.48
0.02,0.43,0.87,0.02,0.96,0.75,32.62
0.02,0.44,0.88,0.08,0.92,0.5,32.48
0.03,0.44,0.89,-0.26,0.7,-0.34,32.48
0.02,0.45,0.88,0.09,0.7,-0.17,32.53
0.03,0.44,0.88,0.52,1.07,0.37,32.48
0.03,0.43,0.89,0.66,1.18,0.58,32.62
0.02,0.44,0.89,0.27,1.1,0.85,32.62
0.02,0.43,0.88,0.32,1.65,1.18,32.48
0.02,0.43,0.88,0.6,1.85,1.27,32.53
0.02,0.43,0.89,0.85,1.59,0.9,32.44
0.02,0.43,0.89,1.08,0.87,0.75,32.58
0.02,0.44,0.89,1.1,0.69,1.05,32.53
0.02,0.44,0.88,1.07,0.82,1.44,32.48
0.02,0.43,0.89,0.93,1.28,1.83,32.58
0.02,0.44,0.87,1.34,1.54,2.32,32.53
0.02,0.44,0.88,1.01,2.03,2.47,32.58
0.02,0.43,0.88,1.44,2.11,2.49,32.48
0.03,0.44,0.88,1.63,1.95,2.67,32.44
0.02,0.43,0.88,2.17,1.73,2.46,32.48
0.02,0.43,0.88,2.6,1.47,1.8,32.53
0.02,0.44,0.89,2.56,1.28,1.73,32.53
0.01,0.44,0.88,2.7,1.25,1.77,32.58
0.01,0.45,0.88,2.5,1.79,2.29,32.44
0.01,0.43,0.89,1.88,1.83,2.37,32.53
0.01,0.44,0.88,1.62,1.56,1.89,32.58
0.02,0.45,0.88,1.62,1.22,1.85,32.48
0.01,0.44,0.88,1.44,1.1,1.86,32.48
0.01,0.44,0.87,1.15,1.08,1.45,32.58
0.02,0.44,0.87,0.84,1.57,1.83,32.62
0.02,0.44,0.89,0.75,1.85,2.09,32.48
0.02,0.44,0.87,0.72,1.85,2.03,32.48
0.02,0.44,0.88,1.1,1.66,1.56,32.44
0.01,0.44,0.87,1.56,1.71,1.02,32.48
0.01,0.44,0.87,1.66,2.02,0.99,32.53
0.02,0.44,0.89,0.55,2.31,1.21,32.44
0.02,0.44,0.88,-0.56,1.86,1.22,32.48
0.02,0.43,0.89,-0.06,1.11,1.02,32.53
0.02,0.44,0.88,-0.17,0.12,1.05,32.48
0.01,0.45,0.88,0.58,-0.21,1.1,32.48
0.02,0.44,0.88,1.44,0.72,1.1,32.53
0.0,0.45,0.87,0.08,1.45,1.71,32.48
0.0,0.44,0.87,-0.69,1.3,2.92,32.44
0.01,0.43,0.88,-0.55,0.63,3.15,32.53
0.02,0.43,0.88,0.27,1.22,3.02,32.58
0.02,0.42,0.89,0.32,0.93,2.58,32.53
0.03,0.43,0.88,-0.47,-0.06,2.0,32.58
0.04,0.45,0.88,-0.49,-1.08,1.83,32.58
0.03,0.45,0.88,0.09,-0.69,1.5,32.53
0.03,0.46,0.87,0.66,-0.49,1.24,32.58
0.03,0.45,0.88,0.49,0.12,1.6,32.48
0.02,0.44,0.88,0.02,0.5,1.51,32.53
0.02,0.43,0.87,0.21,0.46,0.98,32.39
0.02,0.43,0.88,0.49,-0.03,0.4,32.44
0.02,0.44,0.89,0.78,-0.63,0.58,32.53
0.02,0.44,0.88,0.95,-0.87,0.99,32.48
0.02,0.44,0.88,1.3,-0.55,1.25,32.44
0.02,0.44,0.88,1.62,0.02,1.42,32.48
0.02,0.45,0.88,1.82,0.41,1.6,32.48
0.02,0.45,0.89,1.39,0.11,1.79,32.44
0.02,0.45,0.88,1.18,0.49,1.39,32.58
0.02,0.46,0.89,0.87,0.85,1.33,32.48
0.02,0.44,0.88,-0.31,0.5,0.7,32.62
0.02,0.44,0.87,0.67,0.84,0.32,32.48
0.01,0.45,0.89,-0.27,0.21,0.38,32.53
0.01,0.45,0.88,-0.08,-0.63,0.87,32.44
0.01,0.45,0.87,-0.2,-0.03,0.96,32.48
0.02,0.43,0.88,-0.96,1.4,0.67,32.34
0.02,0.42,0.88,-1.8,1.19,0.17,32.58
0.02,0.43,0.88,-2.61,0.06,-0.05,32.48
0.02,0.43,0.88,-1.89,-0.69,-0.05,32.44
0.03,0.44,0.89,-0.95,-1.1,-0.37,32.48
0.03,0.45,0.88,-0.78,-0.73,-0.4,32.39
0.03,0.45,0.87,-1.39,-0.15,-0.41,32.44
0.02,0.44,0.88,-1.88,0.15,-0.23,32.48
0.02,0.43,0.88,-0.93,0.75,0.44,32.62
0.02,0.43,0.88,-0.58,0.99,0.24,32.53
0.02,0.43,0.88,-0.95,0.41,-0.21,32.48
0.01,0.43,0.89,-0.58,0.0,-0.38,32.53
0.01,0.44,0.87,-0.32,0.02,-0.08,32.53
0.01,0.44,0.89,-0.17,0.12,0.14,32.58
0.02,0.44,0.88,-0.5,0.43,0.43,32.44
0.02,0.44,0.87,-0.24,0.63,0.47,32.48
0.02,0.44,0.87,-0.05,0.47,0.53,32.48
0.03,0.44,0.88,-0.02,0.29,0.38,32.44
0.02,0.44,0.87,-0.18,0.15,0.67,32.58
0.03,0.44,0.88,0.11,0.37,0.82,32.44
0.02,0.43,0.88,0.49,0.21,0.85,32.53
0.02,0.44,0.89,0.63,0.32,0.84,32.58
0.02,0.43,0.88,0.66,-0.15,0.53,32.53
0.02,0.44,0.88,1.18,-0.05,0.67,32.62
0.02,0.44,0.89,1.42,0.17,1.21,32.48
0.02,0.44,0.89,1.31,0.63,1.28,32.58
0.02,0.44,0.88,1.3,0.47,1.63,32.58
0.02,0.44,0.88,1.36,0.32,1.39,32.48
0.02,0.44,0.88,1.48,-0.14,1.15,32.53
0.01,0.44,0.88,1.11,-0.15,1.27,32.48
0.02,0.44,0.88,0.92,0.35,1.44,32.48
0.02,0.44,0.89,0.81,0.76,1.62,32.44
0.02,0.45,0.88,0.66,0.53,1.39,32.48
0.02,0.45,0.88,0.56,0.23,1.48,32.53
0.02,0.44,0.88,0.66,0.31,1.47,32.44
0.02,0.44,0.88,0.81,0.84,1.45,32.39
0.03,0.45,0.88,0.93,1.16,1.08,32.48
0.02,0.45,0.88,0.43,1.34,0.84,32.39
0.01,0.44,0.89,0.15,0.58,0.85,32.48
0.03,0.43,0.88,0.27,0.11,1.24,32.53
0.03,0.44,0.89,0.12,-0.08,1.05,32.48
0.03,0.45,0.88,-0.12,-1.27,0.46,32.48
0.02,0.45,0.88,1.19,-1.24,0.58,32.44
0.02,0.46,0.87,0.81,-0.93,0.81,32.58
0.01,0.45,0.88,-0.78,-0.4,2.18,32.53
0.02,0.43,0.89,-0.92,0.05,3.22,32.44
0.03,0.41,0.88,-0.12,1.19,2.99,32.48
0.03,0.42,0.88,0.31,1.39,2.55,32.58
0.03,0.43,0.89,0.15,0.29,2.14,32.62
0.03,0.44,0.89,-0.27,-0.84,1.69,32.39
0.03,0.45,0.87,0.02,-0.81,1.5,32.53
0.03,0.45,0.88,0.35,-0.34,1.54,32.48
0.03,0.45,0.89,0.41,0.08,1.8,32.48
0.04,0.44,0.87,0.34,0.4,1.69,32.53
0.03,0.44,0.87,-0.08,0.61,1.3,32.58
0.02,0.43,0.88,-0.14,0.58,0.63,32.58
0.02,0.43,0.89,0.05,-0.17,0.14,32.53
0.02,0.43,0.88,0.34,-0.72,0.21,32.48
0.02,0.44,0.88,0.15,-1.1,0.46,32.48
0.02,0.44,0.87,-0.14,-0.47,0.73,32.62
0.02,0.44,0.88,-0.02,-0.09,0.73,32.58
0.03,0.44,0.88,0.21,-0.06,1.24,32.62
0.03,0.43,0.88,0.29,-0.2,1.69,32.53
0.03,0.44,0.88,0.11,-0.09,2.05,32.58
0.03,0.43,0.88,0.5,0.29,1.79,32.53
0.03,0.43,0.88,-0.18,0.08,1.16,32.48
0.03,0.44,0.88,0.9,-0.15,0.76,32.58
0.02,0.45,0.88,0.09,-1.11,0.72,32.62
0.02,0.45,0.88,0.76,-1.27,1.01,32.58
0.02,0.44,0.87,0.61,0.21,1.22,32.58
0.02,0.44,0.88,-0.38,1.02,0.72,32.53
0.02,0.43,0.87,-1.82,-0.09,0.47,32.48
0.02,0.43,0.88,-1.44,-0.95,0.35,32.53
0.03,0.44,0.88,-0.61,-0.92,0.4,32.48
0.03,0.45,0.89,0.0,-0.78,0.52,32.58
0.03,0.45,0.87,-0.55,-0.61,0.84,32.44
0.03,0.44,0.88,-0.87,-0.44,0.85,32.48
0.02,0.43,0.88,-0.27,-0.09,0.93,32.48
0.03,0.44,0.89,0.49,0.12,1.19,32.53
0.03,0.43,0.88,0.53,0.9,1.85,32.48
0.03,0.44,0.88,-0.27,1.02,2.03,32.48
0.03,0.44,0.88,-0.02,0.66,1.76,32.53
0.03,0.44,0.88,0.49,0.69,1.76,32.58
0.03,0.44,0.88,0.64,0.66,1.48,32.53
0.03,0.44,0.88,0.43,0.84,1.71,32.58
0.03,0.44,0.88,0.21,1.15,1.63,32.39
0.03,0.44,0.88,0.14,1.11,1.68,32.62
0.03,0.44,0.88,0.38,0.87,1.47,32.48
0.03,0.45,0.88,0.32,0.2,1.01,32.48
0.03,0.44,0.88,0.38,-0.02,0.87,32.53
0.03,0.44,0.88,0.23,0.43,0.85,32.48
0.03,0.44,0.89,0.4,0.5,0.73,32.58
0.02,0.44,0.88,0.5,0.85,1.19,32.53
0.03,0.44,0.88,0.5,0.78,1.44,32.48
0.03,0.44,0.88,0.43,0.92,1.39,32.44
0.03,0.44,0.89,0.63,0.95,1.62,32.44
0.03,0.44,0.89,0.89,1.01,1.6,32.58
0.03,0.44,0.89,0.87,1.05,1.76,32.53
0.03,0.44,0.88,0.85,1.25,1.95,32.53
0.03,0.44,0.88,0.98,1.65,2.49,32.48
0.03,0.44,0.88,1.15,1.92,2.55,32.53
0.03,0.43,0.88,1.15,1.91,2.34,32.58
0.03,0.44,0.88,0.99,1.8,2.14,32.58
0.03,0.44,0.88,0.81,1.63,2.15,32.44
0.03,0.44,0.88,0.72,1.8,2.02,32.48
0.03,0.44,0.88,0.55,1.71,1.69,32.53
0.03,0.44,0.88,0.79,1.82,1.56,32.53
0.03,0.44,0.87,0.61,1.65,1.48,32.58
0.03,0.45,0.88,0.43,1.66,1.31,32.53
0.04,0.44,0.89,0.37,1.77,1.24,32.53
0.03,0.44,0.88,0.64,1.65,1.15,32.48
0.03,0.44,0.87,1.07,1.85,0.79,32.44
0.02,0.43,0.87,1.24,2.37,1.01,32.48
0.02,0.43,0.89,0.06,2.12,1.69,32.48
0.03,0.43,0.89,0.29,1.22,1.56,32.53
0.03,0.43,0.88,0.84,1.24,1.11,32.48
0.03,0.44,0.88,0.26,0.27,1.28,32.48
0.03,0.45,0.88,1.11,-0.15,1.04,32.44
0.02,0.45,0.87,1.31,0.38,1.68,32.48
0.01,0.45,0.87,0.29,1.48,3.33,32.62
0.02,0.44,0.88,-0.15,2.41,4.35,32.53
0.03,0.42,0.88,0.31,3.1,3.74,32.48
0.04,0.41,0.89,0.27,2.63,2.67,32.44
0.03,0.43,0.88,0.14,0.76,2.17,32.53
0.03,0.44,0.88,0.66,-0.12,1.86,32.58
0.04,0.46,0.88,0.98,0.58,1.79,32.53
0.04,0.46,0.88,0.93,1.11,1.92,32.48
0.04,0.46,0.88,0.18,1.11,1.56,32.48
0.03,0.44,0.87,0.32,1.48,1.05,32.62
0.03,0.44,0.88,0.47,1.44,0.78,32.48
0.03,0.43,0.88,0.32,1.31,0.44,32.48
0.02,0.43,0.88,0.0,0.72,0.27,32.53
0.02,0.43,0.88,0.03,0.27,0.44,32.48
0.02,0.44,0.88,0.32,0.43,0.9,32.53
0.02,0.44,0.88,0.7,1.08,1.1,32.62
0.03,0.44,0.89,0.56,1.48,1.44,32.58
0.03,0.44,0.88,0.78,1.51,1.88,32.48
0.03,0.44,0.87,0.84,1.98,1.88,32.53
0.03,0.44,0.87,1.05,1.56,2.11,32.48
0.04,0.44,0.88,1.42,2.05,2.21,32.53
0.04,0.44,0.89,0.53,1.76,1.65,32.53
0.03,0.44,0.88,1.45,1.31,0.7,32.39
0.02,0.45,0.88,1.22,0.49,0.35,32.53
0.02,0.45,0.88,1.39,-0.15,0.56,32.39
0.02,0.45,0.87,0.81,1.21,0.9,32.58
0.02,0.43,0.88,-0.34,2.31,0.92,32.53
0.02,0.42,0.88,-1.3,1.51,0.49,32.48
0.02,0.43,0.88,-0.81,0.56,0.37,32.58
0.03,0.44,0.88,0.23,0.61,0.34,32.53
0.03,0.44,0.88,0.32,0.2,0.24,32.48
0.03,0.45,0.88,-0.08,0.17,0.24,32.58
0.03,0.44,0.88,0.17,0.76,0.7,32.44
0.03,0.44,0.88,0.66,1.36,1.71,32.48
0.03,0.43,0.88,0.67,1.94,2.05,32.48
0.03,0.44,0.87,0.67,1.92,2.06,32.44
0.03,0.43,0.88,0.9,1.92,1.89,32.48
0.03,0.43,0.88,1.18,1.89,1.79,32.44
0.02,0.44,0.87,1.27,1.88,1.77,32.53
0.02,0.44,0.88,1.39,2.18,2.09,32.58
0.02,0.44,0.87,1.53,2.24,2.32,32.48
0.02,0.45,0.88,1.95,2.66,2.2,32.44
0.03,0.45,0.88,1.92,2.96,2.76,32.58
0.03,0.45,0.88,1.77,2.49,2.49,32.44
0.03,0.45,0.88,1.91,1.89,1.8,32.44
0.02,0.44,0.88,2.5,1.62,1.51,32.48
0.03,0.44,0.87,3.34,1.91,1.48,32.62
0.02,0.44,0.88,3.02,2.38,1.53,32.48
0.03,0.44,0.88,2.69,1.45,1.11,32.58
0.02,0.44,0.89,2.87,0.98,0.5,32.53
0.01,0.44,0.87,3.63,0.9,0.37,32.39
0.02,0.44,0.88,3.62,1.34,0.55,32.48
0.02,0.44,0.88,3.39,0.85,0.18,32.53
0.03,0.44,0.88,2.63,0.73,0.27,32.39
0.03,0.44,0.89,2.18,0.31,-0.2,32.53
0.02,0.45,0.88,2.29,0.09,-1.02,32.53
0.02,0.45,0.87,1.95,-0.11,-1.66,32.58
0.01,0.46,0.87,1.05,-1.47,-2.43,32.53
0.03,0.45,0.87,1.25,-1.24,-2.12,32.53
0.03,0.45,0.88,1.6,-0.4,-1.04,32.48
0.06,0.46,0.88,-3.71,4.78,0.43,32.53
0.02,0.47,0.86,-0.05,-0.67,-2.56,32.58
0.02,0.45,0.89,-1.82,0.67,-0.81,32.39
0.04,0.45,0.88,-0.44,-2.31,-1.47,32.44
0.03,0.46,0.88,-0.41,-1.53,-0.32,32.48
0.04,0.45,0.88,-0.2,-0.08,1.95,32.48
0.04,0.44,0.86,0.2,1.95,2.46,32.62
0.03,0.46,0.86,-0.15,3.53,1.65,32.48
0.02,0.45,0.89,-1.13,3.5,2.37,32.44
0.02,0.44,0.87,-1.62,4.5,7.69,32.53
0.05,0.45,0.86,-1.45,6.31,15.25,32.48
0.03,0.44,0.87,-2.27,6.15,19.21,32.53
0.02,0.48,0.9,-1.31,4.26,15.83,32.53
-0.0,0.46,0.9,2.93,1.82,12.14,32.58
0.03,0.43,0.88,10.26,4.29,21.44,32.53
0.04,0.47,0.85,6.4,4.72,20.96,32.48
-0.02,0.45,0.9,-0.44,-2.27,8.99,32.48
0.01,0.44,0.87,3.37,-3.86,6.64,32.53
0.02,0.45,0.88,5.63,-1.74,5.94,32.58
0.03,0.47,0.87,3.5,-2.08,3.3,32.48
0.02,0.44,0.89,2.32,-0.34,2.34,32.53
0.02,0.45,0.86,3.24,1.82,3.08,32.48
0.04,0.44,0.85,4.47,3.3,6.52,32.44
0.04,0.44,0.87,3.21,3.04,7.42,32.53
0.06,0.44,0.87,3.01,2.06,7.45,32.48
0.05,0.44,0.87,1.71,-1.77,4.56,32.58
0.06,0.46,0.85,1.66,-3.59,2.08,32.53
0.05,0.47,0.87,3.85,-2.24,2.29,32.48
0.05,0.45,0.88,5.89,0.56,3.92,32.53
0.03,0.44,0.86,3.4,3.47,6.32,32.58
0.04,0.44,0.85,-0.15,4.56,6.06,32.48
0.03,0.45,0.89,-2.7,2.5,4.24,32.53
0.03,0.45,0.86,-1.13,0.47,3.02,32.48
0.03,0.46,0.87,0.76,0.05,1.88,32.48
0.03,0.45,0.88,1.22,0.21,1.86,32.53
0.03,0.45,0.86,-0.02,1.15,1.92,32.48
0.03,0.43,0.86,0.15,2.87,2.02,32.48
0.04,0.44,0.88,1.02,4.6,2.67,32.44
0.01,0.45,0.87,2.03,4.89,1.97,32.48
0.02,0.45,0.85,3.77,6.26,2.82,32.53
0.05,0.45,0.86,5.66,7.95,6.73,32.44
0.06,0.45,0.87,6.38,8.95,11.24,32.48
0.05,0.45,0.86,7.54,4.75,11.97,32.53
0.03,0.46,0.85,9.47,-0.98,9.51,32.53
0.02,0.47,0.83,10.99,-5.3,8.6,32.48
0.02,0.47,0.8,13.13,-8.84,10.27,32.53
0.03,0.45,0.83,14.76,-14.9,12.17,32.48
0.04,0.45,0.86,17.59,-18.41,13.63,32.58
0.07,0.44,0.85,23.8,-19.57,14.9,32.53
0.12,0.4,0.86,30.73,-14.26,22.02,32.48
0.12,0.42,0.82,41.95,-11.3,28.26,32.48
0.14,0.47,0.84,47.13,-9.73,33.88,32.44
0.13,0.53,0.89,47.76,-15.3,34.95,32.58
0.05,0.51,0.88,46.72,-14.99,30.29,32.48
0.03,0.5,0.88,47.08,-10.26,28.76,32.44
-0.05,0.53,0.91,38.79,-10.4,23.42,32.48
-0.05,0.53,0.9,32.09,-10.61,16.76,32.53
-0.02,0.53,0.86,26.56,-1.97,16.87,32.53
0.01,0.55,0.84,15.98,5.05,15.42,32.48
0.02,0.55,0.88,6.63,6.52,7.34,32.48
0.05,0.53,0.89,-0.03,0.09,1.89,32.53
0.07,0.53,0.91,-4.18,-1.25,-2.35,32.48
0.08,0.53,0.9,-7.73,2.72,-7.11,32.44
0.11,0.53,0.88,-9.76,9.27,-8.29,32.58
0.11,0.52,0.86,-14.23,13.44,-11.33,32.58
0.09,0.52,0.85,-18.15,14.9,-14.05,32.44
0.07,0.52,0.84,-16.78,12.7,-18.32,32.48
0.04,0.52,0.83,-14.03,8.73,-25.56,32.58
0.02,0.54,0.82,-13.51,1.56,-33.39,32.53
0.03,0.57,0.82,-18.0,-5.56,-40.81,32.58
0.05,0.56,0.8,-22.24,-12.7,-48.73,32.48
0.01,0.54,0.83,-22.31,-16.24,-49.53,32.62
0.05,0.5,0.82,-16.76,-10.89,-37.62,32.48
0.1,0.52,0.8,-15.28,-6.2,-27.39,32.53
0.1,0.46,0.83,-14.29,-2.34,-16.09,32.44
0.13,0.44,0.79,-3.36,1.6,-2.09,32.48
0.12,0.48,0.83,-15.86,5.8,0.73,32.53
0.11,0.46,0.83,-9.07,-0.7,3.08,32.53
0.09,0.49,0.82,-8.09,-2.41,2.9,32.58
0.05,0.49,0.85,-10.99,-1.85,0.84,32.44
0.07,0.49,0.84,-11.76,4.55,7.73,32.44
0.07,0.48,0.83,-11.77,12.38,14.6,32.48
0.06,0.49,0.85,-13.16,12.52,13.33,32.53
0.04,0.47,0.86,-11.76,10.53,15.21,32.48
0.04,0.48,0.87,-9.71,6.46,13.24,32.48
0.06,0.47,0.88,-8.41,4.85,10.56,32.53
0.06,0.49,0.85,-6.02,3.65,6.98,32.58
0.03,0.5,0.87,-8.06,2.35,1.8,32.58
0.01,0.48,0.87,-9.62,0.38,-2.46,32.53
0.02,0.47,0.87,-9.39,-0.11,-4.55,32.67
0.03,0.47,0.87,-8.9,1.63,-4.02,32.53
0.03,0.48,0.87,-9.39,0.56,-5.02,32.53
0.03,0.46,0.88,-9.11,-1.82,-7.05,32.48
0.04,0.46,0.87,-7.85,-3.56,-8.84,32.48
0.05,0.46,0.88,-6.66,-3.6,-8.63,32.53
0.06,0.47,0.87,-6.43,-2.52,-7.18,32.48
0.05,0.46,0.87,-5.05,-1.65,-6.12,32.53
0.06,0.44,0.86,-2.72,-0.08,-4.03,32.48
0.06,0.45,0.87,-1.5,0.31,-2.75,32.58
0.06,0.45,0.86,-1.83,-0.58,-1.47,32.53
0.06,0.46,0.87,-2.27,-1.92,-1.82,32.58
0.05,0.46,0.86,-2.44,-2.29,-1.65,32.48
0.05,0.48,0.87,-1.36,-3.1,-1.98,32.53
0.04,0.47,0.87,-1.42,-1.77,-1.82,32.58
0.04,0.48,0.86,-3.18,-0.84,-1.34,32.58
0.04,0.46,0.86,-4.9,-0.69,-0.78,32.53
0.06,0.44,0.88,-4.98,-0.47,-1.15,32.48
0.06,0.44,0.87,-4.27,-0.05,-1.94,32.44
0.05,0.44,0.88,-3.59,-1.08,-1.54,32.44
0.06,0.45,0.87,-3.15,-2.08,-1.13,32.58
0.07,0.46,0.87,-2.29,-1.05,-1.07,32.53
0.06,0.47,0.87,-1.82,0.18,-1.16,32.48
0.06,0.48,0.86,-1.85,0.55,-1.22,32.58
0.06,0.47,0.86,-2.27,0.95,-1.24,32.44
0.06,0.46,0.86,-1.77,0.61,-1.83,32.58
0.04,0.45,0.86,-1.68,0.47,-1.95,32.48
0.05,0.45,0.87,-1.74,-0.02,-1.48,32.53
0.05,0.45,0.88,-1.47,-0.15,-1.21,32.48
0.05,0.45,0.87,-0.9,-0.46,-1.02,32.62
0.03,0.46,0.87,-0.31,-0.02,-0.9,32.44
0.04,0.46,0.87,-0.32,0.34,-0.31,32.58
0.05,0.45,0.88,-0.53,0.95,0.41,32.53
0.06,0.45,0.88,-0.2,1.3,0.73,32.58
0.05,0.46,0.87,-0.03,1.28,0.41,32.48
0.06,0.45,0.87,0.03,1.01,0.06,32.53
0.05,0.45,0.88,-0.4,0.69,-0.4,32.48
0.05,0.45,0.87,-0.73,0.95,-0.79,32.48
0.05,0.45,0.87,0.96,0.99,-0.44,32.53
0.04,0.46,0.88,0.06,1.22,0.5,32.58
0.04,0.47,0.88,-0.24,0.73,0.73,32.53
0.05,0.46,0.87,-0.89,1.05,-0.2,32.53
0.04,0.44,0.87,-1.77,1.18,-1.37,32.48
0.03,0.44,0.87,-2.44,0.41,-1.45,32.53
0.04,0.44,0.87,-2.06,0.03,-1.08,32.53
0.05,0.45,0.88,-1.22,-0.08,-0.82,32.58
0.06,0.46,0.88,-1.15,0.26,-0.89,32.53
0.05,0.45,0.87,-1.25,-0.15,-1.45,32.48
0.05,0.45,0.87,-1.16,-0.38,-1.25,32.48
0.05,0.45,0.87,-0.55,0.37,-0.84,32.53
0.05,0.45,0.87,-0.49,1.54,-0.21,32.58
0.04,0.44,0.87,-0.55,1.8,0.09,32.48
0.04,0.44,0.88,-0.52,1.73,0.03,32.53
0.04,0.44,0.89,-0.41,1.66,0.08,32.48
0.04,0.44,0.88,-0.06,1.5,-0.06,32.62
0.04,0.45,0.88,-0.24,1.5,-0.64,32.53
0.04,0.45,0.87,-0.4,1.04,-0.6,32.48
0.04,0.45,0.87,-0.49,0.66,-0.08,32.53
0.04,0.45,0.87,-0.55,0.87,0.2,32.53
0.05,0.45,0.87,-0.99,0.56,-0.08,32.48
0.05,0.45,0.87,-0.66,0.67,-0.03,32.48
0.05,0.45,0.88,-0.56,0.82,0.08,32.48
0.05,0.45,0.88,-0.32,0.6,0.29,32.48
0.05,0.45,0.86,0.02,0.46,0.35,32.53
0.04,0.44,0.88,0.23,0.67,0.53,32.58
0.04,0.45,0.88,0.52,0.47,0.7,32.58
0.04,0.45,0.87,0.87,0.14,0.82,32.62
0.04,0.45,0.88,0.61,0.14,0.55,32.58
0.05,0.46,0.87,0.06,-0.09,-0.31,32.34
0.04,0.45,0.89,-0.27,0.06,-0.76,32.53
0.04,0.45,0.87,-0.46,0.08,-0.9,32.58
0.04,0.44,0.86,-0.44,-0.06,-0.67,32.48
0.05,0.44,0.87,-0.64,1.04,0.41,32.44
0.04,0.44,0.88,-0.37,1.07,0.87,32.58
0.04,0.45,0.87,-0.38,1.02,0.89,32.53
0.05,0.45,0.88,-0.31,0.96,0.6,32.48
0.05,0.45,0.87,-0.12,1.39,0.34,32.58
0.04,0.45,0.88,0.0,1.68,0.05,32.62
0.04,0.45,0.88,0.4,1.73,-0.75,32.58
0.04,0.45,0.87,0.52,1.62,-0.96,32.58
0.03,0.45,0.88,0.15,1.4,-1.25,32.62
0.03,0.45,0.89,-0.49,2.0,-1.4,32.58
0.04,0.44,0.89,-0.84,2.5,-2.08,32.58
0.04,0.45,0.88,-1.1,2.7,-2.52,32.53
0.04,0.45,0.88,-2.03,2.03,-3.13,32.39
0.04,0.45,0.88,-2.32,1.82,-2.98,32.53
0.04,0.45,0.88,-1.94,1.66,-2.26,32.53
0.05,0.45,0.88,-1.51,1.79,-2.03,32.48
0.04,0.45,0.87,-1.11,2.24,-2.12,32.53
0.04,0.46,0.88,-0.32,1.36,-1.86,32.62
0.05,0.46,0.86,-0.18,1.07,-1.18,32.48
0.05,0.45,0.87,0.02,0.75,-0.26,32.53
0.05,0.44,0.87,-0.11,0.67,0.09,32.58
0.04,0.45,0.87,0.56,0.69,-0.11,32.48
0.04,0.45,0.87,0.76,1.37,0.12,32.44
0.03,0.44,0.88,-0.03,1.73,0.6,32.58
0.03,0.44,0.88,-0.34,1.22,0.72,32.58
0.04,0.45,0.88,-0.23,0.61,0.93,32.44
0.04,0.45,0.86,-0.32,-0.12,1.36,32.48
0.04,0.46,0.88,0.73,-0.63,1.21,32.53
0.03,0.46,0.88,1.04,-0.47,1.45,32.44
0.02,0.45,0.88,0.43,0.69,2.63,32.48
0.03,0.44,0.87,0.03,2.27,3.88,32.53
0.04,0.43,0.87,-0.44,3.62,4.02,32.44
0.05,0.42,0.87,-0.75,3.65,2.96,32.48
0.04,0.43,0.89,0.06,1.44,2.46,32.58
0.04,0.44,0.89,1.25,-0.43,1.33,32.48
0.04,0.47,0.87,1.82,0.18,0.96,32.58
0.04,0.46,0.87,0.89,1.04,1.3,32.53
0.04,0.46,0.88,-1.11,1.63,0.93,32.58
0.04,0.45,0.87,-1.02,1.22,0.31,32.58
0.04,0.44,0.88,-0.26,1.42,0.21,32.53
0.04,0.45,0.89,0.2,0.87,-0.58,32.48
0.03,0.43,0.87,-0.09,0.99,-0.61,32.53
0.04,0.44,0.88,-0.6,-0.17,-0.18,32.53
0.04,0.44,0.89,-0.81,-1.05,-0.24,32.48
0.03,0.44,0.88,0.15,-0.72,-0.03,32.58
0.04,0.44,0.88,0.81,0.5,0.35,32.53
0.04,0.45,0.88,0.76,1.28,1.1,32.48
0.04,0.44,0.88,0.78,2.34,2.02,32.44
0.04,0.45,0.87,0.34,1.89,2.29,32.58
0.05,0.44,0.88,0.32,2.84,2.78,32.58
0.05,0.44,0.88,0.56,2.49,2.34,32.53
0.04,0.43,0.87,0.63,1.79,1.25,32.48
0.03,0.44,0.88,1.95,1.74,0.93,32.44
0.03,0.45,0.87,0.82,2.27,2.27,32.53
0.03,0.46,0.87,0.12,2.29,2.87,32.58
0.03,0.44,0.88,-0.37,3.11,2.53,32.58
0.03,0.44,0.88,-1.21,2.98,1.8,32.53
0.03,0.43,0.89,-1.44,1.53,1.19,32.58
0.03,0.43,0.88,-0.81,1.5,0.55,32.53
0.04,0.45,0.89,-1.13,1.42,0.14,32.48
0.04,0.46,0.88,-1.31,1.13,0.2,32.48
0.04,0.45,0.86,-1.48,2.27,1.04,32.53
0.05,0.44,0.87,-0.67,2.79,1.68,32.48
0.04,0.44,0.87,-0.89,2.26,1.65,32.53
0.03,0.44,0.88,-1.45,1.45,1.63,32.44
0.04,0.44,0.87,-1.31,1.16,2.03,32.58
0.03,0.43,0.89,-0.89,2.15,2.56,32.48
0.04,0.44,0.9,-0.37,2.81,2.37,32.53
0.03,0.45,0.88,-0.4,3.82,1.98,32.58
0.03,0.43,0.87,0.44,2.82,2.09,32.44
0.03,0.44,0.88,-0.12,2.35,2.82,32.58
0.04,0.44,0.89,-0.87,2.08,2.84,32.48
0.03,0.44,0.88,-0.99,1.83,2.98,32.53
0.04,0.44,0.87,-0.66,2.09,2.9,32.39
0.04,0.44,0.89,-0.44,1.98,2.52,32.44
0.04,0.44,0.88,-0.05,0.99,2.08,32.53
0.04,0.45,0.88,0.0,0.72,1.94,32.58
0.03,0.45,0.88,0.18,0.63,1.47,32.53
0.03,0.44,0.89,0.58,0.67,0.98,32.48
0.03,0.45,0.88,1.01,0.72,1.07,32.48
0.03,0.44,0.89,1.21,0.82,1.5,32.62
0.04,0.44,0.88,1.11,1.07,1.3,32.58
0.03,0.44,0.87,0.55,0.99,0.63,32.53
0.02,0.44,0.88,-0.47,0.87,-0.05,32.53
0.02,0.45,0.88,-0.32,0.82,-0.14,32.48
0.03,0.44,0.88,0.21,1.36,0.5,32.53
0.04,0.44,0.88,0.18,1.45,0.9,32.44
0.04,0.44,0.88,0.37,1.65,1.13,32.48
0.04,0.44,0.88,0.26,1.51,0.43,32.58
0.04,0.44,0.88,0.34,1.34,0.0,32.58
0.04,0.44,0.88,0.85,1.47,0.06,32.48
0.04,0.45,0.88,0.58,1.79,0.41,32.53
0.04,0.44,0.88,0.18,1.74,0.55,32.48
0.04,0.45,0.88,-0.03,1.51,0.61,32.48
0.04,0.44,0.87,0.09,1.04,0.09,32.53
0.03,0.44,0.88,0.43,1.3,-0.24,32.58
0.03,0.43,0.88,0.35,1.51,-0.49,32.62
0.03,0.44,0.88,0.14,1.39,-0.76,32.53
0.03,0.44,0.89,-0.05,0.82,-0.82,32.48
0.03,0.44,0.89,-0.05,0.75,-0.72,32.48
0.03,0.44,0.88,-0.17,0.49,-0.31,32.48
0.03,0.44,0.88,-0.06,0.79,-0.11,32.48
0.04,0.44,0.88,0.72,1.53,-0.05,32.53
0.04,0.44,0.88,0.82,1.6,0.02,32.48
0.03,0.44,0.88,0.87,1.79,0.26,32.58
0.03,0.44,0.88,0.67,1.88,0.66,32.53
0.03,0.45,0.88,0.2,0.98,0.23,32.48
0.03,0.45,0.89,0.93,0.78,-0.17,32.44
0.03,0.44,0.87,1.8,1.34,0.0,32.53
0.03,0.44,0.87,1.74,2.38,0.46,32.48
0.02,0.44,0.88,0.24,2.55,1.11,32.58
0.03,0.44,0.88,0.56,2.05,1.1,32.53
0.03,0.44,0.88,0.89,1.34,0.56,32.48
0.03,0.44,0.88,0.35,0.18,0.4,32.53
0.02,0.44,0.88,1.54,-0.17,0.56,32.48
0.02,0.46,0.88,1.31,0.34,1.22,32.48
0.01,0.46,0.88,0.34,1.91,2.49,32.44
0.03,0.45,0.88,-0.27,2.76,3.11,32.58
0.04,0.42,0.88,-0.46,3.3,2.67,32.48
0.04,0.42,0.88,-0.46,2.92,1.73,32.53
0.03,0.43,0.88,-0.23,0.78,1.18,32.58
0.04,0.44,0.88,0.76,-0.79,0.92,32.58
0.04,0.46,0.88,1.31,-0.18,0.63,32.53
0.04,0.46,0.88,1.15,1.11,0.93,32.48
0.04,0.46,0.88,0.12,2.05,1.21,32.53
0.03,0.45,0.87,-0.43,2.58,1.16,32.58
0.03,0.44,0.88,-0.08,2.0,0.32,32.48
0.03,0.43,0.88,0.46,1.44,-0.29,32.53
0.02,0.44,0.88,0.98,0.84,-0.27,32.48
0.03,0.44,0.88,0.58,0.72,0.15,32.48
0.02,0.44,0.88,0.21,0.49,0.53,32.53
0.03,0.45,0.88,0.9,1.13,0.92,32.48
0.03,0.44,0.88,1.69,1.86,1.44,32.58
0.03,0.45,0.89,1.94,2.06,1.37,32.53
0.03,0.45,0.89,1.88,1.69,1.59,32.48
0.03,0.45,0.88,1.94,1.34,1.57,32.44
0.02,0.45,0.88,2.21,1.79,1.92,32.53
0.03,0.44,0.87,2.03,2.56,2.12,32.58
0.03,0.44,0.87,1.95,2.73,1.5,32.53
0.03,0.45,0.87,1.42,1.37,0.69,32.48
0.01,0.45,0.88,0.92,0.14,0.7,32.48
0.02,0.45,0.88,1.6,0.55,1.13,32.44
0.02,0.44,0.87,0.63,2.76,1.45,32.48
0.02,0.43,0.87,-1.27,2.73,1.31,32.48
0.03,0.44,0.88,-2.15,1.28,0.96,32.62
0.03,0.44,0.89,-0.61,0.18,0.23,32.58
0.03,0.46,0.88,0.75,-0.02,-0.38,32.53
0.03,0.45,0.88,0.43,0.23,-0.11,32.44
0.03,0.45,0.87,-0.18,0.96,0.47,32.58
0.03,0.45,0.87,-0.29,1.57,0.87,32.53
0.03,0.44,0.88,0.06,1.77,0.96,32.48
0.02,0.44,0.88,0.06,1.71,1.07,32.58
0.02,0.44,0.89,0.26,1.42,0.99,32.53
0.02,0.44,0.88,0.87,1.63,1.11,32.48
0.02,0.45,0.88,1.13,1.77,1.1,32.58
0.02,0.44,0.88,1.07,1.24,0.85,32.62
0.03,0.45,0.87,0.73,0.92,0.89,32.48
0.02,0.45,0.88,0.53,1.11,1.21,32.53
0.03,0.45,0.87,0.66,1.34,1.53,32.44
0.02,0.45,0.87,0.81,1.54,1.48,32.58
0.03,0.45,0.89,0.76,1.15,1.51,32.53
0.03,0.44,0.88,0.56,0.75,0.89,32.39
0.02,0.45,0.87,0.99,0.7,0.98,32.58
0.02,0.44,0.88,1.44,1.07,1.1,32.53
0.02,0.44,0.88,1.18,1.25,1.31,32.48
0.02,0.44,0.88,1.08,0.85,1.28,32.58
0.02,0.44,0.88,1.3,0.87,1.47,32.53
0.02,0.45,0.87,1.39,0.98,1.6,32.48
0.03,0.44,0.88,1.24,0.96,1.68,32.53
0.02,0.45,0.87,1.16,1.42,1.82,32.58
0.02,0.44,0.88,1.04,1.54,2.14,32.58
0.03,0.45,0.87,0.78,1.6,2.26,32.53
0.03,0.45,0.88,0.7,1.47,1.79,32.48
0.03,0.45,0.87,1.13,1.54,1.48,32.48
0.03,0.45,0.88,1.24,1.4,1.45,32.44
0.03,0.45,0.88,0.84,1.47,1.59,32.58
0.02,0.45,0.87,0.55,1.59,1.68,32.48
0.02,0.45,0.88,0.63,1.65,1.33,32.44
0.02,0.45,0.88,0.64,1.53,0.9,32.48
0.02,0.45,0.88,0.69,1.01,0.73,32.44
0.02,0.45,0.87,0.26,0.64,0.72,32.48
0.02,0.45,0.88,-0.24,0.82,0.81,32.48
0.02,0.45,0.88,0.02,0.75,0.56,32.53
0.03,0.45,0.87,-0.02,0.82,0.53,32.48
0.03,0.45,0.87,-0.23,0.66,0.61,32.58
0.03,0.44,0.88,-0.32,0.02,0.55,32.44
0.03,0.45,0.87,0.08,-0.14,0.67,32.39
0.03,0.45,0.87,0.23,-0.18,0.87,32.58
0.03,0.45,0.87,0.69,0.29,0.92,32.53
0.02,0.45,0.88,0.93,1.16,0.95,32.48
0.02,0.45,0.88,0.53,1.71,1.37,32.62
0.02,0.45,0.89,-0.61,1.11,1.36,32.44
0.03,0.44,0.89,-0.27,-0.06,1.02,32.58
0.02,0.45,0.88,0.69,-0.87,0.95,32.53
0.03,0.45,0.87,0.43,-1.21,1.19,32.48
0.01,0.46,0.88,0.7,-0.64,1.19,32.48
0.01,0.47,0.88,-0.46,0.0,1.19,32.53
0.0,0.46,0.89,-1.24,0.85,1.92,32.48
0.01,0.43,0.87,-0.43,1.24,2.7,32.58
0.03,0.43,0.88,-0.61,1.95,3.05,32.53
0.04,0.43,0.89,-1.28,1.42,1.74,32.48
0.03,0.45,0.88,-1.89,-0.81,0.76,32.53
0.03,0.46,0.87,-1.25,-2.15,0.02,32.44
0.03,0.46,0.88,-0.24,-1.4,-0.41,32.58
