acc_x,acc_y,acc_z,gyro_x,gyro_y,gyro_z,temp
0.03,0.48,0.85,0.49,0.84,1.36,32.44
0.03,0.48,0.84,0.99,0.4,0.6,32.48
0.01,0.5,0.86,1.39,0.0,0.29,32.44
0.01,0.5,0.85,0.37,-0.61,0.95,32.53
0.01,0.49,0.85,0.56,-0.11,1.44,32.48
0.02,0.48,0.85,-0.06,0.98,0.9,32.62
0.01,0.48,0.85,-0.82,1.01,0.27,32.53
0.02,0.47,0.85,-1.71,-0.09,-0.06,32.48
0.02,0.48,0.86,-1.01,-1.1,-0.05,32.44
0.03,0.48,0.86,-0.08,-0.58,0.31,32.48
0.02,0.49,0.86,-0.05,-0.37,0.26,32.58
0.03,0.48,0.85,-0.53,-0.34,0.2,32.62
0.02,0.49,0.84,-0.52,-0.09,0.31,32.58
0.03,0.48,0.85,0.12,0.35,0.87,32.44
0.02,0.48,0.85,0.49,0.69,1.33,32.53
0.02,0.48,0.86,0.67,0.76,1.47,32.58
0.02,0.48,0.86,0.81,0.82,1.15,32.53
0.02,0.48,0.85,0.69,0.69,0.95,32.58
0.02,0.48,0.85,0.81,0.34,0.99,32.48
0.02,0.49,0.86,0.93,0.44,0.81,32.53
0.02,0.48,0.85,0.46,0.26,0.95,32.39
0.02,0.48,0.85,0.43,0.31,1.27,32.53
0.03,0.48,0.86,0.49,0.4,1.27,32.62
0.03,0.49,0.85,0.73,0.49,1.25,32.58
0.03,0.49,0.85,0.76,0.34,1.22,32.62
0.03,0.48,0.86,0.63,0.09,0.87,32.58
0.03,0.48,0.86,0.9,0.21,0.9,32.58
0.03,0.48,0.85,0.99,0.31,1.18,32.44
0.03,0.49,0.86,1.01,0.27,1.08,32.48
0.02,0.49,0.85,0.95,0.08,0.89,32.58
0.02,0.49,0.85,0.81,0.41,1.05,32.44
0.02,0.49,0.87,0.67,0.41,0.76,32.48
0.03,0.48,0.86,0.69,0.6,1.19,32.53
0.02,0.49,0.86,0.58,0.89,1.1,32.53
0.02,0.49,0.85,0.49,0.79,0.81,32.48
0.02,0.49,0.86,0.35,0.63,0.73,32.44
0.02,0.48,0.85,0.21,0.38,0.58,32.39
0.02,0.49,0.84,0.2,0.52,0.79,32.58
0.03,0.49,0.84,0.26,0.81,0.84,32.44
0.02,0.48,0.85,0.37,0.87,0.78,32.48
0.02,0.49,0.85,0.58,0.95,0.6,32.48
0.02,0.49,0.86,0.4,0.92,0.72,32.53
0.02,0.48,0.85,0.12,0.66,0.5,32.58
0.02,0.48,0.85,0.09,0.84,0.53,32.53
0.02,0.48,0.85,0.05,0.6,0.6,32.48
0.02,0.48,0.86,-0.03,0.49,0.38,32.58
0.03,0.49,0.85,0.27,0.52,0.08,32.53
0.02,0.49,0.86,0.31,0.46,0.14,32.48
0.02,0.48,0.85,0.09,0.44,0.52,32.48
0.02,0.48,0.86,-0.27,0.63,0.84,32.53
0.03,0.49,0.85,-0.18,0.43,0.79,32.48
0.03,0.48,0.86,0.41,0.29,0.79,32.48
0.03,0.48,0.85,1.02,0.47,0.69,32.53
0.02,0.49,0.85,1.18,0.9,0.73,32.58
0.02,0.49,0.86,0.55,1.15,0.84,32.53
0.02,0.48,0.86,0.31,0.92,1.24,32.58
0.03,0.48,0.85,1.04,0.7,1.31,32.48
0.03,0.49,0.85,1.05,0.5,1.31,32.53
0.03,0.5,0.85,0.52,-0.53,0.82,32.58
0.01,0.49,0.85,1.21,-0.76,0.92,32.48
0.0,0.49,0.86,0.76,-0.08,1.44,32.53
0.01,0.49,0.85,0.23,0.58,2.81,32.58
0.02,0.48,0.86,0.53,1.28,3.79,32.48
0.03,0.46,0.86,0.2,2.43,2.73,32.53
0.03,0.46,0.86,-0.06,2.6,1.47,32.48
0.02,0.48,0.86,0.17,0.55,0.9,32.44
0.03,0.5,0.86,-0.27,-2.31,0.38,32.44
0.03,0.5,0.86,0.37,-0.85,0.69,32.48
0.03,0.51,0.84,0.63,1.33,1.77,32.53
0.03,0.5,0.84,-0.14,1.97,1.6,32.39
0.02,0.48,0.85,-0.47,1.62,0.9,32.58
0.03,0.48,0.86,-0.44,0.35,-0.26,32.44
0.03,0.47,0.84,0.02,0.17,-0.17,32.48
0.02,0.48,0.86,0.38,-0.5,0.14,32.48
0.02,0.48,0.85,0.0,-0.61,0.14,32.53
0.02,0.49,0.86,-0.06,-0.03,0.14,32.58
0.02,0.49,0.86,-0.06,0.66,0.61,32.53
0.02,0.48,0.85,0.63,0.9,1.02,32.58
0.03,0.48,0.84,0.53,0.92,1.34,32.48
0.03,0.48,0.86,0.21,0.67,1.69,32.44
0.02,0.48,0.86,0.06,0.79,1.54,32.39
0.03,0.48,0.86,0.32,0.98,1.27,32.53
0.03,0.48,0.85,0.82,0.7,0.55,32.53
0.02,0.48,0.85,0.37,0.15,-0.4,32.48
0.02,0.49,0.86,1.13,-0.2,-0.35,32.48
0.01,0.49,0.86,0.0,-0.82,0.24,32.53
0.02,0.49,0.85,0.08,0.05,0.95,32.48
0.02,0.49,0.86,-0.12,1.04,0.6,32.44
0.02,0.48,0.85,-0.9,1.77,0.34,32.48
0.01,0.47,0.85,-1.39,0.63,0.06,32.48
0.01,0.48,0.85,-0.93,-0.05,0.05,32.53
0.03,0.48,0.86,-0.18,-0.56,0.27,32.48
0.03,0.48,0.87,0.06,0.49,0.58,32.53
0.03,0.49,0.85,-0.35,1.13,0.99,32.53
0.03,0.48,0.84,-0.56,1.4,1.11,32.48
0.03,0.48,0.85,-0.05,1.34,0.93,32.48
0.03,0.48,0.84,0.84,1.24,1.47,32.53
0.02,0.47,0.86,0.9,1.63,1.82,32.58
0.03,0.49,0.86,0.61,2.05,1.89,32.34
0.02,0.48,0.87,0.93,2.81,1.65,32.48
0.02,0.48,0.87,1.59,2.53,1.07,32.39
0.03,0.48,0.86,1.91,1.51,0.5,32.53
0.03,0.48,0.85,1.73,0.9,0.44,32.48
0.03,0.48,0.86,1.68,0.79,0.41,32.58
0.03,0.48,0.85,1.68,0.7,1.15,32.44
0.03,0.49,0.86,1.37,0.47,1.02,32.58
0.03,0.49,0.86,1.44,0.46,0.61,32.39
0.03,0.49,0.86,1.91,0.85,0.7,32.53
0.02,0.49,0.85,1.76,0.9,1.01,32.48
0.02,0.48,0.85,1.54,1.1,1.16,32.44
0.02,0.49,0.85,1.3,0.81,1.54,32.53
0.03,0.49,0.86,1.21,0.78,1.76,32.48
0.01,0.49,0.85,1.94,0.87,1.59,32.53
0.02,0.49,0.86,2.98,0.67,1.63,32.44
0.02,0.48,0.86,2.96,1.05,2.06,32.48
0.02,0.49,0.85,2.78,1.3,2.08,32.53
0.02,0.48,0.86,2.27,1.68,2.4,32.48
0.02,0.48,0.85,3.15,2.58,2.92,32.58
0.03,0.48,0.85,3.66,3.5,3.34,32.53
0.03,0.49,0.84,4.53,3.45,3.37,32.48
0.03,0.49,0.86,4.2,3.27,2.96,32.53
0.03,0.49,0.86,3.39,2.05,2.93,32.53
0.02,0.49,0.84,2.66,2.09,3.31,32.48
0.02,0.49,0.83,2.58,3.15,3.15,32.53
0.02,0.5,0.84,2.9,4.46,3.59,32.44
0.02,0.5,0.85,2.32,3.97,3.04,32.39
0.02,0.49,0.87,2.18,2.4,1.3,32.53
0.02,0.49,0.86,2.53,0.64,-0.08,32.48
0.02,0.49,0.85,3.6,0.66,-0.69,32.48
0.02,0.49,0.85,4.26,0.93,-0.29,32.53
0.03,0.5,0.85,4.06,1.22,-0.06,32.48
0.02,0.5,0.86,3.94,0.64,-0.64,32.48
0.03,0.49,0.85,5.05,0.79,-1.53,32.44
0.02,0.49,0.85,6.87,1.13,-1.05,32.48
0.01,0.48,0.85,8.15,1.88,-0.18,32.53
0.01,0.5,0.85,8.11,2.43,0.15,32.53
0.03,0.49,0.85,8.98,3.02,0.31,32.48
0.02,0.49,0.85,8.43,2.4,0.03,32.44
0.0,0.5,0.84,8.53,1.62,-0.93,32.48
-0.0,0.51,0.84,8.87,1.16,-0.69,32.48
-0.01,0.5,0.85,8.81,1.62,-0.49,32.53
0.02,0.5,0.83,9.15,3.69,0.76,32.39
0.05,0.53,0.83,7.48,5.34,0.5,32.39
0.03,0.51,0.84,7.07,3.33,-0.08,32.44
0.01,0.51,0.84,5.85,1.94,1.83,32.48
0.01,0.52,0.83,2.69,2.18,2.93,32.53
0.0,0.51,0.85,-1.1,1.44,2.76,32.53
0.0,0.53,0.84,-3.15,0.4,4.21,32.48
-0.0,0.53,0.84,-3.4,1.13,4.24,32.53
0.02,0.5,0.84,-3.8,2.0,2.11,32.53
0.02,0.49,0.85,-3.02,1.76,1.88,32.58
0.03,0.49,0.84,-2.81,1.76,3.47,32.53
0.01,0.51,0.82,-3.37,0.9,4.53,32.48
0.02,0.54,0.82,-4.31,1.62,7.33,32.48
0.06,0.54,0.86,-7.42,3.15,9.39,32.53
0.03,0.52,0.83,-4.21,3.94,9.77,32.48
0.05,0.5,0.83,-1.07,6.73,10.55,32.53
0.02,0.49,0.86,-2.02,4.98,4.44,32.53
0.0,0.45,0.87,0.92,1.25,-0.79,32.39
-0.01,0.47,0.85,1.63,0.61,-1.16,32.53
0.02,0.5,0.83,-1.8,0.96,0.47,32.53
0.02,0.52,0.84,-4.99,-0.6,-1.11,32.48
0.03,0.5,0.84,-5.65,-2.46,-2.29,32.39
0.02,0.52,0.85,-4.99,-4.76,-3.31,32.53
-0.01,0.5,0.82,-5.57,-4.5,-5.37,32.48
0.01,0.52,0.84,-5.59,-4.2,-9.04,32.53
0.01,0.5,0.85,-3.27,-4.05,-7.59,32.48
0.03,0.51,0.84,-0.99,-1.11,-3.95,32.48
0.04,0.49,0.85,0.4,0.32,-2.29,32.44
0.03,0.47,0.87,-1.51,-0.64,-3.37,32.39
0.02,0.48,0.85,-0.58,-1.18,-2.78,32.53
0.01,0.5,0.85,-2.84,-1.59,-1.94,32.44
0.01,0.49,0.85,-3.02,-2.0,-1.51,32.58
0.01,0.48,0.84,0.55,1.48,1.76,32.39
0.03,0.5,0.83,0.49,7.19,5.65,32.44
0.01,0.51,0.85,-1.4,7.91,5.28,32.48
0.01,0.5,0.85,-0.99,4.93,3.3,32.62
0.0,0.5,0.84,-0.56,3.86,2.56,32.48
0.01,0.5,0.85,-1.37,1.6,0.89,32.58
0.01,0.49,0.85,-1.42,0.44,1.07,32.53
0.02,0.48,0.85,-1.1,3.71,2.79,32.48
0.04,0.49,0.85,-1.34,7.3,5.25,32.48
0.02,0.49,0.86,-2.17,7.5,4.49,32.53
0.01,0.48,0.85,-0.35,6.12,3.66,32.48
0.01,0.48,0.85,-0.84,5.92,4.23,32.48
0.02,0.49,0.84,-1.37,6.12,5.92,32.44
0.01,0.49,0.85,-3.07,4.18,4.84,32.48
0.0,0.49,0.85,-2.06,2.85,5.53,32.53
0.0,0.49,0.85,-1.45,2.79,5.88,32.53
0.03,0.5,0.84,-0.61,2.52,6.69,32.48
0.02,0.5,0.86,-2.35,2.23,4.82,32.53
-0.0,0.5,0.86,-2.61,1.53,2.92,32.48
-0.0,0.49,0.87,-3.47,1.63,2.2,32.48
0.01,0.47,0.86,-1.98,1.36,2.81,32.53
0.03,0.5,0.85,-0.78,1.68,4.15,32.48
0.02,0.5,0.85,-1.27,1.04,3.36,32.48
0.02,0.49,0.86,-1.63,0.12,3.31,32.62
0.0,0.49,0.86,-2.15,-0.6,2.41,32.58
0.01,0.48,0.85,-2.24,0.18,4.05,32.44
-0.0,0.48,0.86,-2.89,2.37,6.11,32.53
0.0,0.49,0.85,-3.31,3.73,6.98,32.48
-0.01,0.49,0.85,-4.47,4.11,6.27,32.53
0.01,0.48,0.86,-1.97,3.11,6.69,32.53
0.03,0.48,0.85,-0.18,3.08,8.06,32.39
0.02,0.49,0.86,-0.61,2.05,8.29,32.44
0.02,0.47,0.84,0.32,2.18,10.08,32.48
0.0,0.49,0.85,-1.65,2.37,10.12,32.58
0.01,0.49,0.84,-0.98,1.66,11.18,32.44
0.01,0.48,0.86,-0.95,2.21,11.65,32.58
0.01,0.5,0.87,-1.34,3.69,10.58,32.53
0.01,0.49,0.86,-3.01,2.89,6.66,32.62
0.01,0.49,0.86,-0.05,2.64,5.39,32.39
0.03,0.48,0.84,1.76,3.3,6.02,32.53
0.02,0.49,0.84,1.59,2.15,6.96,32.44
0.01,0.48,0.85,0.14,0.99,5.92,32.48
0.01,0.49,0.85,0.53,0.27,5.44,32.53
0.02,0.49,0.85,0.79,0.09,6.38,32.48
0.02,0.5,0.85,1.07,1.08,6.43,32.39
0.02,0.49,0.84,2.41,1.77,7.15,32.53
0.02,0.48,0.87,1.98,2.24,8.24,32.48
0.03,0.49,0.86,1.65,0.02,6.5,32.58
0.02,0.49,0.86,1.08,-0.55,5.69,32.53
0.01,0.48,0.86,2.03,-0.05,5.8,32.48
0.0,0.48,0.86,2.96,1.56,5.74,32.48
0.0,0.49,0.85,2.79,2.41,5.8,32.53
0.01,0.48,0.85,5.15,5.57,5.39,32.48
0.03,0.47,0.91,4.55,3.88,7.34,32.53
0.01,0.49,0.85,3.3,-1.24,5.31,32.53
0.03,0.5,0.86,1.33,-0.69,4.61,32.58
0.02,0.49,0.84,5.21,-0.2,4.2,32.39
0.02,0.5,0.84,5.65,0.0,5.68,32.53
0.0,0.47,0.85,5.42,-0.52,9.97,32.39
0.02,0.48,0.85,3.31,-1.62,11.33,32.44
0.03,0.48,0.85,3.25,-3.4,9.13,32.48
0.02,0.48,0.85,4.99,-2.67,8.05,32.58
0.06,0.49,0.85,6.18,-1.89,7.68,32.53
0.03,0.49,0.86,5.92,-3.44,8.08,32.48
0.02,0.49,0.86,3.98,-3.36,5.1,32.44
0.03,0.52,0.84,3.77,-0.56,4.7,32.44
0.03,0.51,0.84,5.1,0.53,6.75,32.58
0.06,0.51,0.83,6.06,1.25,11.24,32.48
0.06,0.5,0.85,3.83,-0.85,13.21,32.44
0.05,0.52,0.86,0.85,-3.86,13.3,32.48
0.05,0.5,0.87,1.39,-2.6,15.33,32.53
0.04,0.5,0.86,1.47,-0.9,17.51,32.48
0.02,0.48,0.85,0.24,-0.21,17.69,32.58
-0.04,0.49,0.87,-3.83,-0.92,10.5,32.53
0.04,0.51,0.83,-1.27,-0.63,9.89,32.48
0.05,0.5,0.85,-1.39,-1.85,7.48,32.58
0.04,0.48,0.85,1.62,-4.37,-1.3,32.44
0.07,0.49,0.86,6.92,-0.75,8.08,32.48
0.06,0.49,0.84,7.85,-1.5,3.71,32.39
0.06,0.48,0.84,6.96,0.75,2.49,32.44
0.08,0.48,0.85,9.11,2.78,4.58,32.48
0.04,0.5,0.86,7.62,-0.02,1.44,32.44
0.03,0.51,0.86,6.85,-4.14,-1.66,32.53
0.04,0.5,0.85,7.08,-4.49,-4.53,32.48
0.03,0.49,0.83,7.79,-4.05,-5.91,32.44
0.06,0.49,0.82,8.46,-2.12,-5.68,32.48
0.05,0.5,0.8,10.66,0.35,-4.15,32.58
0.05,0.51,0.81,12.47,3.79,-2.11,32.53
0.06,0.54,0.82,12.64,4.12,-1.76,32.48
0.06,0.54,0.85,11.85,4.56,-1.34,32.48
0.04,0.53,0.86,11.65,0.96,-3.6,32.53
0.02,0.52,0.83,14.56,-0.14,-3.57,32.48
0.04,0.54,0.83,16.55,1.39,-0.87,32.53
0.04,0.54,0.83,12.82,0.64,-1.57,32.53
0.06,0.57,0.85,-3.44,-10.43,4.5,32.48
0.06,0.54,0.76,3.44,-8.38,-2.87,32.44
0.05,0.54,0.81,6.99,0.27,-0.96,32.53
0.05,0.51,0.84,9.73,1.69,-1.39,32.48
0.04,0.52,0.84,8.55,3.54,-1.76,32.53
0.05,0.55,0.82,5.77,5.21,-1.08,32.48
0.05,0.54,0.83,4.85,3.53,0.52,32.48
0.07,0.53,0.84,5.77,1.24,0.9,32.44
0.05,0.54,0.84,6.58,0.9,-0.08,32.39
0.05,0.53,0.83,5.85,1.91,-0.5,32.53
0.04,0.53,0.84,4.43,3.36,0.43,32.44
0.04,0.53,0.83,3.37,4.67,1.51,32.48
0.05,0.53,0.82,3.45,3.89,2.67,32.53
0.06,0.55,0.83,4.18,4.93,3.6,32.53
0.05,0.54,0.83,4.38,2.12,0.67,32.58
0.03,0.54,0.8,1.79,0.55,-1.15,32.44
0.06,0.53,0.83,1.76,2.37,-2.35,32.39
0.06,0.54,0.83,3.13,3.25,-1.18,32.48
0.04,0.53,0.83,2.37,0.55,-2.56,32.44
0.03,0.54,0.83,2.02,-0.99,-2.53,32.39
0.05,0.54,0.82,1.66,-0.02,-1.18,32.53
0.05,0.54,0.83,1.77,0.08,-2.32,32.53
0.06,0.53,0.82,2.96,0.61,-2.82,32.48
0.05,0.54,0.82,3.18,-0.37,-3.04,32.53
0.06,0.55,0.81,4.24,-1.05,-3.39,32.44
0.06,0.54,0.81,4.37,-0.82,-2.92,32.48
0.06,0.54,0.82,3.97,-0.18,-2.32,32.44
0.05,0.55,0.82,3.94,0.69,-2.6,32.48
0.03,0.54,0.82,2.58,0.03,-3.36,32.48
0.02,0.55,0.82,1.97,-2.14,-4.87,32.62
0.02,0.55,0.82,0.53,-2.43,-4.5,32.48
0.02,0.54,0.83,-0.58,-1.34,-3.62,32.48
0.02,0.55,0.82,-2.52,-0.34,-4.09,32.53
0.04,0.55,0.8,-1.18,1.1,-4.08,32.48
0.05,0.55,0.81,-2.11,1.15,-4.02,32.53
0.06,0.54,0.8,-1.3,0.26,-3.33,32.53
0.05,0.53,0.82,-1.51,0.93,-3.04,32.58
0.04,0.54,0.83,-1.82,1.45,-2.56,32.53
0.02,0.55,0.81,-1.27,1.19,-2.23,32.58
0.04,0.56,0.81,-0.17,2.63,0.14,32.48
0.04,0.56,0.83,-1.51,4.0,2.03,32.53
0.03,0.55,0.85,-3.01,2.6,2.34,32.48
0.03,0.54,0.83,-3.71,3.22,2.98,32.58
0.01,0.53,0.8,-2.11,3.48,1.95,32.53
-0.02,0.54,0.82,-5.34,6.38,3.27,32.48
0.02,0.54,0.84,-5.73,5.21,3.22,32.53
0.06,0.54,0.81,-5.6,4.03,2.78,32.53
0.05,0.54,0.83,-4.5,3.19,0.4,32.48
0.04,0.55,0.82,-3.25,-0.34,-2.9,32.44
0.03,0.56,0.8,-3.28,-1.37,-4.79,32.48
0.04,0.55,0.82,-5.18,4.92,-4.09,32.39
0.04,0.55,0.83,-6.26,6.78,-3.85,32.53
0.04,0.54,0.84,-7.04,3.02,-5.98,32.58
0.03,0.53,0.83,-6.69,0.15,-7.98,32.48
0.02,0.53,0.83,-6.53,-0.53,-9.22,32.53
0.0,0.54,0.83,-7.05,2.23,-8.38,32.48
0.01,0.54,0.82,-7.08,0.73,-9.13,32.44
0.0,0.55,0.83,-7.31,0.46,-10.08,32.53
0.0,0.54,0.84,-6.93,0.37,-10.58,32.58
0.01,0.55,0.83,-7.56,0.14,-11.5,32.53
0.02,0.55,0.83,-8.12,1.01,-11.62,32.48
0.02,0.55,0.82,-9.08,-0.02,-11.91,32.48
0.02,0.54,0.84,-10.15,-0.89,-13.42,32.53
-0.0,0.54,0.84,-10.85,-2.06,-15.63,32.48
-0.03,0.53,0.84,-9.89,0.02,-15.66,32.53
-0.03,0.52,0.84,-7.56,0.7,-14.47,32.53
-0.03,0.52,0.84,-8.85,0.58,-14.02,32.48
-0.03,0.5,0.84,-10.17,1.66,-14.9,32.53
-0.03,0.5,0.84,-10.37,2.69,-15.66,32.53
-0.03,0.49,0.84,-10.17,1.22,-15.68,32.48
-0.0,0.48,0.83,-9.45,1.4,-14.7,32.44
0.02,0.48,0.81,-9.76,2.69,-12.72,32.58
0.02,0.48,0.82,-11.76,1.94,-12.09,32.48
0.03,0.47,0.82,-12.7,-1.24,-12.24,32.53
0.03,0.45,0.82,-13.34,-4.14,-11.56,32.48
0.02,0.45,0.81,-14.56,-5.54,-10.14,32.58
0.03,0.45,0.83,-16.6,-5.51,-8.76,32.53
0.03,0.45,0.83,-17.08,-5.71,-7.77,32.58
0.04,0.45,0.84,-17.44,-5.11,-6.49,32.53
0.06,0.45,0.85,-16.4,-4.43,-5.44,32.53
0.06,0.47,0.86,-15.8,-4.24,-4.58,32.48
0.06,0.49,0.85,-15.4,-6.61,-4.98,32.53
0.05,0.51,0.87,-15.95,-7.8,-4.29,32.58
0.03,0.51,0.85,-16.52,-9.19,-4.55,32.58
0.01,0.51,0.88,-15.18,-7.76,-4.47,32.53
0.01,0.51,0.86,-11.42,-5.34,-3.31,32.58
0.01,0.51,0.87,-8.06,-2.44,-2.87,32.48
0.01,0.51,0.88,-4.5,-0.21,-4.18,32.62
0.01,0.5,0.87,-1.71,0.82,-5.15,32.58
0.0,0.48,0.87,-0.6,1.59,-4.55,32.53
0.02,0.47,0.86,-1.07,2.81,-3.6,32.53
0.03,0.47,0.87,-2.73,2.27,-3.02,32.48
0.03,0.47,0.86,-4.99,-0.41,-4.21,32.44
0.03,0.47,0.88,-5.24,-2.43,-4.63,32.39
0.03,0.47,0.88,-4.56,-3.22,-3.88,32.48
0.02,0.46,0.89,-3.42,-1.02,-3.36,32.53
0.01,0.45,0.89,-1.82,3.54,-1.98,32.58
0.0,0.44,0.88,-0.53,6.61,-0.4,32.44
-0.01,0.43,0.89,-0.32,7.77,0.82,32.53
-0.03,0.44,0.89,-1.3,7.15,0.84,32.48
-0.01,0.42,0.87,-2.96,5.98,1.79,32.44
-0.0,0.42,0.88,-4.06,6.24,4.11,32.53
0.01,0.41,0.88,-4.34,5.79,4.81,32.39
-0.0,0.42,0.88,-3.95,5.48,4.26,32.53
-0.01,0.43,0.87,-3.71,5.21,3.39,32.48
-0.04,0.44,0.88,-3.83,5.76,3.89,32.48
-0.04,0.43,0.88,-3.85,6.64,5.42,32.44
-0.04,0.43,0.88,-3.59,6.49,6.93,32.48
-0.03,0.43,0.87,-3.28,9.07,8.34,32.44
-0.02,0.44,0.87,-3.62,8.17,8.35,32.44
-0.02,0.46,0.87,-3.95,4.99,7.02,32.39
-0.02,0.46,0.87,-3.91,4.2,6.06,32.53
-0.03,0.46,0.87,-2.85,4.44,5.77,32.48
-0.03,0.47,0.86,-1.65,4.14,6.11,32.58
-0.02,0.48,0.87,-0.09,4.87,7.47,32.44
-0.0,0.47,0.85,2.17,6.2,8.18,32.48
0.01,0.47,0.85,3.28,6.6,7.34,32.39
0.01,0.46,0.86,3.54,3.76,6.03,32.53
-0.11,0.52,0.77,5.07,-4.9,-10.05,32.48
0.05,0.52,0.82,-5.47,32.31,54.75,32.53
0.06,0.4,0.9,-10.17,41.69,63.91,32.53
0.23,0.04,0.83,20.9,29.53,68.76,32.58
0.03,0.4,0.91,16.49,24.99,67.73,32.53
-0.02,0.5,0.86,12.7,22.37,58.47,32.58
-0.04,0.62,0.8,-1.97,17.8,48.47,32.48
-0.04,0.59,0.84,-2.82,9.28,29.89,32.53
-0.05,0.54,0.85,0.73,20.32,20.26,32.58
-0.03,0.54,0.86,8.85,17.04,10.06,32.48
-0.09,0.56,0.76,17.33,1.16,1.71,32.53
-0.01,0.46,0.87,3.15,-2.03,1.33,32.48
0.01,0.46,0.85,-4.02,-5.89,1.07,32.44
0.01,0.46,0.85,-7.66,-2.5,2.61,32.53
0.01,0.46,0.87,-6.03,2.87,3.48,32.48
0.03,0.46,0.88,0.06,7.08,6.58,32.53
0.04,0.45,0.88,2.08,6.92,7.21,32.48
0.02,0.43,0.89,3.68,6.06,8.69,32.48
-0.05,0.25,0.65,27.19,9.73,22.75,32.44
-0.04,0.55,0.9,7.53,4.95,2.09,32.48
-0.0,0.56,0.85,5.83,-0.67,-0.26,32.48
-0.0,0.46,0.88,6.85,-6.56,-7.22,32.53
-0.02,0.42,0.89,6.99,-13.25,-16.87,32.48
-0.32,1.24,0.8,-37.44,-40.09,-79.31,32.53
-0.08,0.53,0.77,-33.31,-69.86,-112.26,32.58
0.02,0.26,0.87,-19.62,-68.27,-97.77,32.48
0.08,0.23,0.83,15.92,-24.6,-41.04,32.53
0.1,0.39,0.9,8.63,13.36,6.11,32.48
0.05,0.44,0.9,-6.6,18.2,11.65,32.58
-0.0,0.48,0.86,-9.97,9.57,1.69,32.44
-0.02,0.48,0.86,-8.76,-5.86,-5.73,32.58
0.0,0.45,0.86,-1.51,-16.27,-6.72,32.58
0.01,0.43,0.87,4.53,-10.75,-2.73,32.44
0.01,0.42,0.89,3.33,4.35,1.56,32.48
-0.01,0.45,0.88,1.13,15.4,5.22,32.44
-0.01,0.44,0.87,2.18,13.68,5.47,32.53
0.0,0.45,0.88,4.46,4.75,3.24,32.48
0.0,0.45,0.88,4.76,-1.47,1.54,32.44
0.01,0.46,0.87,2.44,-2.6,0.89,32.48
-0.0,0.47,0.88,-0.47,0.82,0.38,32.58
-0.02,0.48,0.89,-1.59,3.97,-0.69,32.53
-0.01,0.47,0.88,3.27,5.37,-0.14,32.48
0.0,0.47,0.88,4.99,6.99,1.05,32.48
-0.01,0.47,0.88,4.66,5.31,-0.58,32.53
-0.01,0.46,0.87,2.6,3.59,-1.77,32.48
-0.02,0.46,0.87,1.11,3.95,-1.27,32.53
-0.02,0.46,0.87,0.75,4.34,-0.18,32.44
-0.01,0.47,0.88,0.84,4.21,-0.7,32.48
-0.01,0.46,0.88,2.27,5.01,-1.69,32.53
-0.03,0.47,0.88,2.69,4.84,-2.27,32.58
-0.02,0.47,0.86,2.08,4.09,-1.79,32.48
-0.02,0.47,0.87,1.8,4.56,-1.24,32.53
-0.01,0.46,0.88,1.83,5.31,-1.56,32.58
-0.02,0.46,0.88,2.61,6.32,-2.27,32.48
-0.02,0.46,0.87,3.65,7.16,-1.94,32.53
-0.02,0.46,0.88,4.34,7.53,-0.98,32.39
-0.01,0.47,0.87,4.29,7.11,-0.49,32.48
-0.0,0.47,0.86,3.74,6.37,0.05,32.53
-0.02,0.47,0.88,3.25,5.62,-0.72,32.39
-0.02,0.47,0.87,3.66,6.2,-2.02,32.44
-0.04,0.46,0.86,2.93,6.99,-1.94,32.53
-0.05,0.47,0.86,2.49,6.17,-2.41,32.58
-0.06,0.48,0.86,2.69,5.91,-2.35,32.44
-0.06,0.48,0.87,2.14,4.69,-2.7,32.48
-0.05,0.47,0.87,1.86,4.75,-3.4,32.39
-0.05,0.46,0.86,1.54,4.67,-4.12,32.44
-0.04,0.45,0.86,-0.47,3.89,-3.42,32.39
-0.04,0.45,0.86,-3.18,1.57,-3.31,32.48
-0.03,0.45,0.85,-2.79,1.1,-3.08,32.53
-0.04,0.46,0.86,-2.26,1.13,-2.79,32.48
-0.05,0.46,0.86,-1.33,1.62,-1.8,32.53
-0.04,0.45,0.85,-1.91,2.15,-0.69,32.53
-0.03,0.42,0.86,-3.85,2.79,-0.52,32.48
-0.02,0.41,0.87,-3.66,2.37,-0.44,32.53
-0.02,0.41,0.86,-2.23,1.42,0.08,32.53
-0.01,0.43,0.86,-2.29,-0.14,0.84,32.58
-0.01,0.45,0.86,-3.25,-0.78,1.65,32.48
-0.0,0.46,0.86,-4.23,0.02,2.26,32.62
-0.0,0.45,0.85,-3.39,-0.29,1.65,32.48
-0.01,0.45,0.86,-1.42,-0.49,0.38,32.44
-0.01,0.45,0.86,-0.75,-0.06,0.34,32.58
-0.03,0.45,0.86,1.25,-0.78,0.14,32.48
-0.03,0.46,0.86,0.46,-1.08,0.96,32.53
-0.04,0.46,0.88,0.35,-0.87,1.68,32.58
-0.04,0.46,0.88,1.02,-1.95,0.96,32.48
-0.05,0.46,0.87,2.56,-3.34,0.09,32.53
-0.04,0.47,0.87,3.47,-3.08,1.01,32.58
-0.04,0.47,0.88,3.57,-2.6,2.06,32.58
-0.03,0.46,0.88,3.69,-1.94,2.47,32.44
-0.03,0.47,0.87,4.06,-2.06,2.81,32.39
-0.03,0.46,0.86,3.66,-2.56,2.76,32.53
-0.03,0.46,0.87,4.11,-3.45,2.63,32.53
-0.03,0.47,0.88,5.42,-3.16,3.73,32.58
-0.03,0.49,0.86,5.95,-1.97,4.93,32.44
-0.02,0.49,0.85,6.17,-0.18,5.54,32.53
-0.02,0.47,0.85,4.98,1.15,5.34,32.48
-0.02,0.44,0.85,3.51,-0.09,5.21,32.44
-0.02,0.44,0.86,2.17,-1.08,5.56,32.53
-0.0,0.44,0.85,2.56,-2.84,5.53,32.58
0.0,0.46,0.86,2.29,-1.59,5.82,32.53
0.01,0.48,0.85,2.55,-0.43,6.18,32.48
0.0,0.49,0.86,2.58,0.47,5.76,32.58
-0.0,0.5,0.87,2.69,0.6,4.99,32.53
-0.01,0.49,0.86,3.11,0.38,3.88,32.48
-0.03,0.49,0.87,3.16,-0.06,3.19,32.48
-0.03,0.49,0.87,3.42,0.63,3.54,32.53
-0.04,0.48,0.88,2.92,0.87,3.62,32.48
-0.03,0.48,0.87,3.4,0.53,2.87,32.53
-0.02,0.48,0.86,4.15,0.34,2.92,32.53
-0.02,0.48,0.86,3.66,0.05,2.69,32.58
-0.01,0.48,0.87,2.15,-1.07,1.94,32.48
-0.03,0.47,0.86,2.61,-0.7,2.0,32.53
-0.01,0.48,0.85,3.22,-0.72,2.87,32.48
-0.01,0.47,0.87,2.92,0.66,3.54,32.53
-0.0,0.48,0.86,2.44,1.44,2.72,32.58
-0.01,0.47,0.87,3.02,1.59,2.47,32.48
-0.01,0.48,0.86,3.36,1.66,2.96,32.44
-0.01,0.48,0.86,2.6,1.42,2.75,32.58
-0.02,0.48,0.86,2.44,1.28,2.29,32.48
-0.02,0.47,0.86,2.73,1.24,2.31,32.53
-0.02,0.48,0.86,2.55,1.01,1.88,32.58
-0.03,0.48,0.87,1.31,0.21,0.4,32.58
-0.03,0.47,0.87,0.79,0.21,-0.09,32.53
-0.03,0.48,0.85,0.56,0.49,-0.26,32.58
-0.02,0.48,0.86,0.56,0.76,-0.64,32.53
-0.02,0.48,0.86,0.92,0.31,-1.98,32.53
-0.03,0.48,0.86,0.82,-0.67,-3.82,32.58
-0.02,0.48,0.85,1.56,-1.18,-4.18,32.53
-0.02,0.48,0.86,2.18,-1.21,-4.27,32.53
-0.02,0.48,0.86,2.2,-1.65,-4.46,32.48
-0.02,0.48,0.85,2.67,-1.57,-4.26,32.53
-0.02,0.48,0.85,1.82,-0.58,-3.85,32.58
-0.03,0.48,0.84,1.98,0.17,-2.43,32.48
-0.01,0.47,0.86,0.96,-0.26,-1.37,32.53
0.0,0.48,0.86,2.29,-1.18,-0.87,32.58
-0.01,0.48,0.85,2.63,-0.24,-0.75,32.39
-0.01,0.49,0.85,2.31,-0.17,-0.55,32.44
-0.02,0.49,0.86,1.6,0.31,-0.2,32.58
-0.01,0.48,0.87,0.7,0.24,1.11,32.48
-0.01,0.47,0.86,0.18,-0.15,1.71,32.44
-0.01,0.48,0.87,0.18,-1.88,1.13,32.58
-0.01,0.49,0.86,-0.75,-3.89,0.69,32.53
-0.03,0.49,0.84,0.18,-4.53,0.46,32.53
-0.03,0.49,0.85,1.89,-2.2,2.05,32.48
-0.04,0.49,0.84,1.86,0.46,4.41,32.48
-0.02,0.48,0.85,1.01,1.89,5.94,32.53
-0.01,0.47,0.84,0.49,1.16,4.35,32.58
-0.0,0.46,0.85,1.65,0.79,2.67,32.44
-0.01,0.47,0.85,2.63,0.58,1.25,32.48
-0.01,0.48,0.85,3.92,-1.1,0.66,32.48
0.0,0.49,0.86,1.83,-0.15,1.94,32.53
0.0,0.5,0.86,1.27,2.46,5.15,32.58
0.02,0.5,0.85,2.76,5.54,9.04,32.48
0.01,0.5,0.85,3.82,6.56,9.91,32.53
-0.01,0.5,0.84,3.1,4.79,8.52,32.58
-0.02,0.47,0.85,2.49,4.43,6.44,32.48
-0.02,0.47,0.86,2.08,3.82,6.93,32.53
-0.03,0.47,0.86,1.97,4.95,8.96,32.48
0.02,0.5,0.86,1.94,6.67,13.57,32.44
-0.01,0.5,0.86,-0.95,3.08,10.32,32.53
-0.0,0.5,0.88,-2.03,0.08,4.93,32.58
-0.04,0.5,0.89,-1.25,-1.19,-0.18,32.62
-0.06,0.48,0.89,-2.75,-1.08,-2.56,32.48
-0.06,0.49,0.87,-6.11,-0.4,-2.69,32.58
-0.05,0.49,0.86,-9.34,0.96,-1.65,32.53
-0.08,0.44,0.83,-10.56,-3.66,-2.69,32.48
-0.03,0.48,0.86,-5.88,-3.24,-6.53,32.58
-0.02,0.48,0.84,-5.36,-1.08,-6.2,32.53
-0.01,0.5,0.85,-6.41,-1.98,-6.6,32.48
0.01,0.49,0.86,-6.49,-0.7,-6.55,32.53
-0.01,0.47,0.84,-4.24,-0.61,-5.88,32.44
-0.01,0.45,0.83,-1.24,0.46,-2.03,32.48
0.02,0.46,0.84,-0.81,1.8,0.63,32.44
0.0,0.46,0.85,0.41,2.43,2.15,32.53
0.01,0.48,0.86,1.5,1.6,3.22,32.58
0.01,0.48,0.86,3.44,1.1,3.42,32.53
0.01,0.48,0.84,5.24,2.24,3.16,32.58
0.0,0.48,0.85,4.76,3.42,4.08,32.48
0.0,0.47,0.85,5.01,4.79,4.93,32.53
-0.01,0.49,0.86,3.19,6.02,5.37,32.48
-0.01,0.47,0.86,2.52,4.41,3.98,32.48
-0.01,0.47,0.83,3.08,2.53,4.14,32.53
-0.02,0.47,0.84,3.6,3.11,7.65,32.48
-0.01,0.49,0.86,2.7,3.85,7.47,32.44
-0.0,0.48,0.86,3.24,3.53,6.31,32.53
-0.01,0.48,0.83,3.51,3.22,6.27,32.48
0.01,0.48,0.82,7.15,6.15,9.51,32.53
0.01,0.48,0.83,10.24,8.84,11.13,32.53
-0.01,0.48,0.82,12.5,10.49,12.08,32.48
-0.03,0.46,0.84,18.96,10.61,14.43,32.44
0.02,0.47,0.85,25.11,11.42,17.11,32.58
0.03,0.47,0.85,28.5,11.53,17.53,32.48
0.0,0.46,0.87,27.08,11.63,17.27,32.53
-0.01,0.54,0.81,29.44,3.15,13.98,32.48
-0.06,0.53,0.82,25.62,-2.37,16.37,32.58
-0.07,0.52,0.81,22.4,-8.5,13.21,32.44
-0.06,0.5,0.8,22.53,-9.33,19.65,32.58
-0.05,0.49,0.79,25.08,-10.72,28.52,32.62
0.05,0.49,0.8,31.25,-13.82,37.24,32.53
0.17,0.48,0.81,50.81,-18.75,49.25,32.48
0.19,0.51,0.79,64.46,-20.2,61.8,32.48
0.19,0.46,0.85,87.73,-13.1,79.25,32.58
0.17,0.49,0.83,97.21,-6.37,85.42,32.48
0.02,0.53,0.86,93.48,-5.74,74.47,32.44
-0.1,0.64,0.83,76.2,-7.97,58.44,32.58
-0.13,0.65,0.78,54.95,-6.92,45.63,32.58
-0.05,0.65,0.81,47.94,-0.66,40.35,32.53
-0.02,0.68,0.83,28.4,3.04,26.37,32.48
-0.08,0.69,0.88,10.79,-2.27,3.73,32.53
-0.14,0.66,0.88,0.82,-8.81,-23.18,32.62
-0.15,0.64,0.88,-4.67,-13.97,-52.23,32.48
-0.1,0.64,0.91,-14.98,-18.85,-80.98,32.58
-0.11,0.7,0.79,-25.73,-31.18,-100.61,32.39
-0.04,0.7,0.71,-40.41,-38.69,-111.57,32.58
0.04,0.65,0.73,-45.48,-32.55,-100.0,32.44
0.13,0.64,0.77,-38.55,-23.18,-69.97,32.58
0.33,0.56,0.65,-15.95,4.49,-34.82,32.58
0.32,0.59,0.7,-18.9,5.54,-21.82,32.53
0.22,0.58,0.77,-16.11,-0.69,-15.47,32.58
0.09,0.56,0.77,-10.66,5.88,-7.77,32.53
0.04,0.57,0.78,-10.06,6.2,-2.27,32.53
-0.01,0.51,0.81,-5.28,9.97,8.23,32.48
0.01,0.5,0.77,-0.06,22.27,23.13,32.48
-0.02,0.49,0.81,-2.4,31.71,27.3,32.58
0.03,0.51,0.8,-3.13,35.18,37.16,32.58
0.03,0.54,0.79,-8.87,31.3,44.82,32.53
0.03,0.59,0.76,-17.53,19.4,45.71,32.48
0.02,0.62,0.76,-26.66,8.43,43.91,32.48
0.03,0.6,0.76,-27.69,3.77,40.11,32.44
0.04,0.58,0.88,-26.81,-0.49,32.84,32.48
0.09,0.55,0.78,-6.6,14.26,32.63,32.53
-0.06,0.78,0.84,-8.37,19.4,16.44,32.53
-0.08,0.6,0.82,-10.85,7.74,5.05,32.48
-0.02,0.57,0.79,-14.02,-0.81,-1.33,32.48
0.01,0.55,0.79,-15.71,-2.56,-4.49,32.58
0.0,0.56,0.83,-13.95,-2.56,-6.56,32.48
-0.0,0.55,0.84,-10.99,-4.18,-7.45,32.44
0.02,0.56,0.83,-10.52,-6.26,-11.04,32.58
0.03,0.56,0.81,-10.63,-8.15,-15.83,32.48
0.02,0.55,0.81,-10.66,-10.66,-20.0,32.53
0.01,0.54,0.81,-9.07,-12.31,-22.85,32.39
0.02,0.54,0.81,-6.43,-9.02,-19.63,32.53
0.03,0.55,0.83,-7.15,-4.49,-15.08,32.44
0.03,0.54,0.83,-7.04,-2.21,-13.66,32.48
0.02,0.54,0.84,-5.86,-2.32,-11.33,32.58
0.04,0.52,0.83,-2.64,-1.91,-6.47,32.48
0.05,0.55,0.8,-1.57,-0.79,-3.51,32.58
0.05,0.54,0.8,-3.57,-0.37,-3.62,32.44
0.03,0.53,0.81,-4.27,-1.54,-4.35,32.48
0.01,0.52,0.83,-4.6,-4.34,-4.99,32.44
0.0,0.53,0.84,-2.66,-5.16,-4.27,32.53
0.0,0.53,0.83,-0.82,-3.22,-2.31,32.48
0.01,0.54,0.81,-0.63,-1.16,-0.78,32.53
0.02,0.54,0.82,-2.06,0.6,1.4,32.44
0.03,0.54,0.81,-3.05,0.11,0.89,32.48
0.03,0.55,0.81,-3.51,-0.02,-0.35,32.44
0.04,0.54,0.82,-2.09,-1.18,-1.47,32.48
0.03,0.53,0.82,-1.88,-0.5,-1.16,32.48
0.03,0.53,0.82,-2.34,-0.72,-0.63,32.53
0.01,0.53,0.83,-3.22,-1.08,-0.49,32.58
0.01,0.53,0.83,-3.11,-1.79,-0.49,32.62
0.01,0.53,0.82,-2.98,-1.02,-0.66,32.53
0.02,0.53,0.82,-2.66,-0.76,-0.44,32.58
0.02,0.54,0.82,-3.5,-0.69,-0.4,32.44
0.03,0.53,0.83,-4.38,-1.07,-0.7,32.53
0.03,0.53,0.83,-3.86,-1.42,-1.39,32.58
0.03,0.52,0.82,-3.37,-1.34,-1.27,32.53
0.03,0.53,0.83,-3.44,-0.63,-1.08,32.48
0.03,0.52,0.83,-3.16,-0.34,-1.1,32.58
0.03,0.52,0.83,-2.76,-0.05,-0.58,32.53
0.03,0.53,0.83,-2.38,0.4,-0.09,32.48
0.03,0.53,0.84,-3.04,0.2,0.06,32.53
0.02,0.53,0.84,-3.59,0.17,-0.05,32.53
0.02,0.53,0.83,-3.25,0.34,-0.09,32.48
0.02,0.52,0.83,-2.75,0.67,-0.2,32.53
0.02,0.52,0.83,-2.73,0.89,0.24,32.53
0.03,0.53,0.83,-3.48,0.38,0.17,32.48
0.03,0.53,0.83,-3.74,0.37,-0.23,32.53
0.03,0.53,0.84,-3.07,0.35,-0.63,32.48
0.02,0.52,0.82,-2.81,0.67,-0.41,32.48
0.02,0.52,0.83,-3.86,0.73,-0.72,32.53
0.02,0.53,0.85,-4.29,0.75,-1.04,32.58
0.02,0.53,0.83,-4.5,0.37,-1.66,32.48
0.02,0.53,0.84,-4.52,0.05,-2.09,32.53
0.02,0.53,0.82,-5.31,0.0,-2.49,32.48
0.02,0.52,0.83,-5.86,-0.6,-2.89,32.53
0.02,0.52,0.84,-6.31,0.78,-2.24,32.53
0.02,0.52,0.83,-5.19,1.08,-1.85,32.48
0.02,0.52,0.84,-4.53,0.46,-1.77,32.58
0.02,0.52,0.84,-4.64,0.34,-1.33,32.44
0.02,0.51,0.84,-4.95,0.6,-1.28,32.58
0.01,0.51,0.84,-5.59,1.37,-1.92,32.53
0.01,0.51,0.83,-4.93,1.36,-1.07,32.53
0.01,0.51,0.85,-3.92,1.98,0.08,32.48
0.02,0.51,0.85,-4.5,0.56,0.61,32.53
0.02,0.52,0.83,-4.34,0.18,1.36,32.48
0.02,0.51,0.84,-3.15,-0.47,0.95,32.48
0.01,0.52,0.83,-3.04,1.18,2.0,32.44
0.01,0.52,0.84,-4.2,1.77,3.62,32.58
0.02,0.5,0.83,-4.6,1.94,3.11,32.48
0.02,0.5,0.85,-4.17,1.88,1.34,32.44
0.02,0.49,0.84,-4.35,0.81,0.27,32.48
0.02,0.49,0.85,-4.2,-0.64,0.44,32.62
0.02,0.51,0.85,-3.25,-0.96,0.53,32.62
0.03,0.52,0.84,-2.41,0.08,0.73,32.48
0.03,0.53,0.84,-2.92,0.64,0.46,32.53
0.03,0.53,0.84,-4.03,0.55,0.64,32.58
0.03,0.51,0.84,-4.49,0.64,0.21,32.58
0.03,0.49,0.85,-3.47,1.08,-0.44,32.53
0.03,0.49,0.84,-2.73,0.79,-0.37,32.48
0.02,0.5,0.85,-3.21,-0.29,0.08,32.48
0.0,0.5,0.84,-3.53,2.63,1.51,32.53
0.01,0.5,0.84,-2.38,0.87,0.89,32.58
0.01,0.5,0.85,-2.08,0.66,0.76,32.62
0.02,0.5,0.85,-2.09,1.1,0.85,32.53
0.02,0.5,0.85,-2.78,1.42,2.0,32.48
0.02,0.5,0.85,-2.93,0.82,1.66,32.53
0.03,0.5,0.84,-2.05,1.25,2.2,32.44
0.03,0.5,0.84,-1.66,1.36,1.91,32.58
0.02,0.5,0.84,-2.46,0.79,1.07,32.62
0.03,0.5,0.85,-0.96,0.92,0.64,32.44
0.01,0.5,0.85,-1.11,0.99,0.73,32.48
0.02,0.5,0.85,0.02,0.5,0.46,32.62
0.01,0.5,0.85,0.11,-1.48,-0.41,32.58
0.02,0.49,0.84,-2.6,0.98,-2.06,32.48
-0.0,0.49,0.86,-2.96,1.65,-1.89,32.53
0.0,0.48,0.85,-2.72,-1.95,-3.05,32.58
0.01,0.5,0.85,-2.03,-3.27,-3.66,32.48
0.02,0.51,0.84,-2.31,-2.85,-3.82,32.53
0.02,0.5,0.84,-4.14,0.0,-2.49,32.58
0.02,0.5,0.84,-3.88,-0.38,-2.89,32.44
0.03,0.49,0.85,-3.47,-2.41,-3.73,32.53
0.02,0.49,0.84,-3.44,-1.16,-3.28,32.48
0.02,0.48,0.86,-3.1,-0.58,-3.21,32.48
0.02,0.48,0.86,-2.75,-1.15,-3.05,32.53
0.02,0.49,0.85,-0.66,0.02,-1.68,32.48
0.03,0.49,0.83,-0.24,1.13,-1.25,32.62
0.02,0.49,0.84,-0.81,2.27,-0.6,32.44
0.02,0.49,0.84,-0.61,0.95,-0.15,32.58
0.02,0.48,0.83,-1.97,0.66,0.15,32.62
0.02,0.5,0.85,-1.15,-0.55,-1.07,32.48
0.01,0.5,0.84,-1.34,0.66,-1.18,32.48
0.01,0.5,0.85,-0.56,0.03,-1.63,32.62
0.02,0.49,0.85,-0.18,-0.24,-1.65,32.48
0.03,0.49,0.85,-0.26,-0.92,-2.52,32.48
0.01,0.49,0.85,0.14,-1.65,-3.5,32.62
0.01,0.48,0.84,0.14,-2.31,-4.38,32.48
0.02,0.5,0.85,-0.35,-2.53,-4.72,32.53
0.02,0.49,0.84,-0.37,-2.12,-3.94,32.53
0.02,0.5,0.86,-0.44,-1.54,-2.55,32.58
0.02,0.49,0.86,-0.11,-0.84,-1.28,32.62
0.02,0.49,0.85,0.56,-0.29,-0.75,32.53
0.01,0.48,0.85,1.21,-0.58,-1.05,32.58
0.02,0.49,0.86,1.47,-1.21,-0.93,32.44
0.02,0.49,0.86,1.08,-0.6,-0.58,32.48
0.02,0.49,0.86,1.13,0.37,-0.18,32.48
0.02,0.49,0.85,1.6,1.36,0.63,32.53
0.02,0.49,0.85,2.11,1.79,1.15,32.48
0.01,0.5,0.85,1.86,0.87,0.73,32.48
0.02,0.49,0.86,1.42,0.11,-0.43,32.62
0.01,0.49,0.84,1.31,-0.31,-0.76,32.48
0.02,0.49,0.85,1.6,0.29,-0.31,32.53
0.02,0.5,0.84,1.39,0.87,0.37,32.44
0.02,0.49,0.85,1.08,0.34,0.31,32.48
0.02,0.49,0.85,0.61,-0.69,0.08,32.53
0.01,0.49,0.85,0.53,-0.98,0.02,32.62
0.02,0.49,0.85,0.87,-0.29,0.0,32.58
0.02,0.5,0.85,0.89,0.24,0.11,32.48
0.02,0.5,0.85,0.4,-0.17,-0.34,32.53
0.02,0.49,0.85,0.02,-0.93,-0.98,32.48
0.0,0.49,0.84,-0.17,-1.11,-1.44,32.53
-0.0,0.49,0.85,-0.05,-0.12,-1.27,32.48
0.01,0.49,0.86,-0.26,0.79,-0.12,32.58
0.02,0.49,0.86,-0.18,0.82,0.21,32.53
0.03,0.5,0.86,0.38,-0.35,0.46,32.48
0.02,0.5,0.86,0.37,-1.76,0.61,32.58
0.02,0.51,0.84,0.96,-2.27,0.7,32.53
0.01,0.51,0.85,0.98,-1.59,0.85,32.58
-0.01,0.5,0.84,0.38,0.08,2.38,32.58
0.0,0.5,0.85,-0.27,0.89,2.87,32.44
0.01,0.48,0.85,-0.87,1.11,1.98,32.58
0.03,0.47,0.86,-1.15,2.0,1.4,32.44
0.03,0.47,0.86,-1.1,0.95,1.74,32.53
0.03,0.48,0.86,-0.24,-1.11,1.34,32.48
0.03,0.5,0.84,0.41,-1.59,1.27,32.53
0.03,0.52,0.85,0.46,-0.18,1.5,32.48
0.03,0.52,0.84,-1.16,0.44,1.18,32.48
0.04,0.5,0.84,-1.73,1.22,1.33,32.53
0.03,0.49,0.85,-1.21,1.3,0.93,32.58
0.02,0.49,0.85,-1.02,0.66,0.03,32.58
0.01,0.49,0.85,-1.16,0.23,-0.6,32.44
0.01,0.49,0.86,-1.73,-0.43,-0.56,32.48
0.02,0.48,0.86,-1.16,-0.09,0.17,32.53
0.02,0.49,0.84,-1.3,0.21,0.58,32.53
0.03,0.5,0.86,-1.4,0.24,0.18,32.48
0.03,0.5,0.86,-0.5,-1.04,-0.37,32.53
0.02,0.5,0.86,-0.84,-1.22,-0.52,32.62
0.01,0.5,0.85,-0.31,-0.78,0.47,32.58
0.03,0.48,0.85,0.38,0.96,2.41,32.53
0.04,0.49,0.85,0.02,0.92,2.46,32.48
0.03,0.49,0.85,0.15,0.41,0.31,32.48
0.0,0.5,0.85,-0.58,-1.42,-0.75,32.44
0.01,0.49,0.85,0.84,-1.19,0.63,32.58
0.01,0.5,0.85,0.89,0.84,1.62,32.53
0.02,0.49,0.85,-0.52,1.86,0.98,32.53
0.01,0.49,0.85,-2.4,-0.17,-0.27,32.58
0.01,0.48,0.86,-2.58,-1.08,-0.46,32.62
0.01,0.48,0.85,-1.07,-1.34,-0.08,32.53
0.03,0.49,0.85,-0.24,-1.48,0.02,32.58
0.03,0.5,0.85,-0.98,-1.13,-0.4,32.53
0.02,0.49,0.85,-1.51,-0.24,-0.49,32.53
0.02,0.48,0.85,-1.59,0.12,-0.29,32.48
0.01,0.48,0.84,-1.24,-0.18,0.06,32.53
0.02,0.48,0.85,-0.9,-0.02,0.67,32.48
0.03,0.48,0.85,-1.02,0.17,0.92,32.48
0.03,0.48,0.86,-1.3,-0.24,0.38,32.53
0.02,0.48,0.85,-0.81,-0.79,0.08,32.48
0.02,0.48,0.85,0.08,-0.08,0.61,32.53
0.02,0.49,0.85,-0.06,0.27,0.89,32.53
0.02,0.49,0.85,-0.47,0.81,1.25,32.48
0.02,0.49,0.85,-0.79,0.75,1.21,32.53
0.01,0.49,0.86,-0.99,0.4,0.6,32.44
0.02,0.49,0.85,-0.12,0.75,0.27,32.48
0.02,0.49,0.85,-0.12,0.87,-0.02,32.48
0.03,0.49,0.85,0.05,1.05,-0.09,32.48
0.02,0.48,0.85,-0.15,0.82,0.03,32.48
0.03,0.49,0.86,-0.26,0.58,-0.4,32.53
0.03,0.48,0.86,0.02,0.38,-0.32,32.48
0.03,0.48,0.86,0.29,0.06,0.27,32.48
0.03,0.49,0.85,0.02,-0.18,0.52,32.53
0.02,0.49,0.86,-0.55,-0.21,0.35,32.58
0.03,0.49,0.86,-0.15,-0.41,0.56,32.53
0.03,0.48,0.85,0.12,0.0,0.76,32.53
0.02,0.48,0.86,0.73,0.55,0.96,32.48
0.02,0.49,0.85,0.92,1.16,1.1,32.48
0.02,0.48,0.86,0.5,1.66,1.53,32.53
0.03,0.49,0.85,0.82,1.62,1.63,32.48
0.02,0.49,0.85,1.08,0.98,1.68,32.62
0.02,0.49,0.85,1.25,0.55,1.25,32.58
0.01,0.49,0.85,1.07,0.43,0.79,32.58
0.02,0.49,0.85,0.81,1.42,0.96,32.53
0.01,0.49,0.85,0.78,1.65,0.63,32.48
0.01,0.49,0.86,0.2,2.12,0.23,32.48
0.01,0.49,0.86,0.14,2.03,0.6,32.53
0.03,0.49,0.85,0.09,2.0,0.6,32.58
0.02,0.48,0.85,-0.29,1.51,-0.29,32.48
0.02,0.48,0.86,-0.72,1.76,-0.37,32.53
0.03,0.48,0.86,-0.5,1.74,0.09,32.58
0.02,0.48,0.86,-0.52,1.73,0.08,32.53
0.02,0.48,0.85,-0.29,1.74,0.05,32.53
0.02,0.48,0.85,0.12,1.68,0.58,32.48
0.03,0.49,0.85,0.7,1.85,0.78,32.53
0.02,0.49,0.86,0.34,2.37,0.6,32.62
0.01,0.48,0.86,-0.21,2.2,0.72,32.58
0.02,0.47,0.86,-0.02,1.97,0.82,32.62
0.02,0.48,0.86,0.32,2.08,1.19,32.58
0.03,0.5,0.86,-0.14,1.42,1.85,32.48
0.02,0.5,0.85,0.46,0.96,1.15,32.44
0.01,0.5,0.84,0.03,0.43,1.59,32.58
0.01,0.49,0.85,0.24,1.5,3.13,32.53
0.02,0.48,0.86,-0.21,2.58,3.66,32.53
0.02,0.47,0.85,-1.07,2.79,2.26,32.48
0.02,0.46,0.86,-1.4,1.88,1.02,32.53
0.01,0.47,0.86,-1.1,0.11,0.17,32.62
0.02,0.49,0.87,-0.15,-0.6,0.37,32.48
0.03,0.49,0.84,0.73,0.98,1.22,32.53
0.03,0.51,0.85,0.73,2.96,1.88,32.48
0.03,0.5,0.85,-0.41,2.85,1.5,32.48
0.03,0.49,0.84,-0.61,1.8,0.78,32.62
0.03,0.48,0.86,-0.08,1.4,-0.41,32.58
0.01,0.48,0.85,0.69,1.31,-0.81,32.48
0.01,0.48,0.86,0.56,1.45,-0.09,32.62
0.02,0.48,0.86,0.27,1.63,0.55,32.58
0.0,0.49,0.86,0.03,1.5,0.66,32.53
0.01,0.49,0.85,0.15,1.59,0.75,32.53
0.01,0.48,0.86,1.04,1.85,0.87,32.58
0.01,0.49,0.86,1.11,2.31,1.15,32.53
0.01,0.49,0.86,0.75,2.0,1.24,32.58
0.02,0.48,0.84,1.6,2.38,1.8,32.58
0.02,0.49,0.85,0.98,2.84,2.37,32.53
0.03,0.49,0.86,0.82,2.84,1.66,32.48
0.02,0.49,0.87,1.01,1.88,0.67,32.58
0.0,0.49,0.86,0.63,0.73,0.73,32.53
0.01,0.5,0.85,1.13,1.04,1.11,32.48
0.0,0.48,0.85,0.49,2.55,0.87,32.53
0.0,0.48,0.85,-0.98,2.89,0.58,32.53
0.0,0.48,0.86,-2.23,1.76,0.34,32.48
0.01,0.48,0.87,-1.8,0.37,-0.14,32.53
0.01,0.48,0.86,-0.43,0.34,-0.06,32.53
0.01,0.5,0.86,-0.11,0.69,-0.17,32.48
0.01,0.5,0.85,-1.04,1.3,-0.21,32.62
0.01,0.49,0.85,-1.48,1.59,-0.06,32.48
0.02,0.48,0.86,-1.33,2.0,0.43,32.48
0.02,0.47,0.85,-0.84,1.76,0.72,32.53
0.02,0.47,0.86,-0.35,1.74,0.79,32.58
0.0,0.48,0.85,-0.14,1.57,0.6,32.53
0.02,0.47,0.86,-0.47,2.02,1.15,32.53
0.02,0.48,0.86,-0.26,1.98,1.18,32.48
0.01,0.48,0.84,0.08,2.02,0.79,32.53
0.01,0.49,0.85,0.21,1.56,0.52,32.48
0.01,0.49,0.86,0.15,1.19,0.75,32.58
0.0,0.48,0.85,0.06,1.31,0.9,32.62
0.0,0.48,0.85,0.11,1.79,1.28,32.58
0.01,0.48,0.85,-0.14,1.89,1.11,32.48
0.02,0.49,0.85,0.29,1.5,1.01,32.53
0.01,0.48,0.86,0.72,0.98,0.31,32.58
0.01,0.48,0.87,0.55,0.78,0.61,32.53
0.01,0.48,0.86,0.73,1.16,0.82,32.62
0.01,0.49,0.85,0.63,1.6,1.04,32.48
0.0,0.48,0.86,0.29,1.66,1.31,32.53
0.01,0.47,0.86,0.7,1.33,1.36,32.48
0.01,0.47,0.86,1.04,1.28,1.53,32.48
0.01,0.48,0.85,1.4,1.37,1.73,32.53
0.02,0.48,0.86,0.99,1.48,1.82,32.58
0.01,0.48,0.85,0.96,1.76,1.77,32.48
0.01,0.49,0.86,1.24,2.05,2.14,32.53
